{
   "identifier":{
      "value":"7"
   },
   "resourceType":"Bundle",
   "type":"transaction",
   "entry":[
      {
         "resource":{
            "id":"01010101-0101-4101-8101-010101010101",
            "resourceType":"Organization",
            "address":[
               {
                  "country":"44"
               }
            ],
            "identifier":[
               {
                  "value":"RAL"
               },
               {
                  "value":"4.2-two",
                  "type":{
                     "coding":[
                        {
                           "system":"http://terminology.hl7.org/CodeSystem/v2-0301",
                           "code":"UUID"
                        }
                     ]
                  },
                  "system":"urn:ietf:rfc:3986"
               }
            ]
         },
         "request":{
            "method":"PUT",
            "url":"Organization/01010101-0101-4101-8101-010101010101"
         }
      },
      {
         "resource":{
            "id":"02020202-0202-4202-8202-020202020202",
            "resourceType":"Organization",
            "name":"Reciever - YIEWSLEY FAMILY PRACTICE",
            "identifier":[
               {
                  "value":"6010",
                  "type":{
                     "coding":[
                        {
                           "code":"DCode",
                           "system":"http://terminology.hl7.org/CodeSystem/v2-0203"
                        }
                     ]
                  }
               }
            ]
         },
         "request":{
            "url":"Organization/02020202-0202-4202-8202-020202020202",
            "method":"PUT"
         }
      },
      {
         "resource":{
            "id":"03030303-0303-4303-8303-030303030303",
            "resourceType":"Organization",
            "name":"Resposible - YIEWSLEY FAMILY PRACTICE",
            "identifier":[
               {
                  "type":{
                     "coding":[
                        {
                           "code":"RCode",
                           "system":"http://terminology.hl7.org/CodeSystem/v2-0203"
                        }
                     ]
                  },
                  "value":"6010"
               }
            ]
         },
         "request":{
            "method":"PUT",
            "url":"Organization/03030303-0303-4303-8303-030303030303"
         }
      },
      {
         "resource":{
            "timestamp":"2019-03-09T13:01:56.9339Z",
            "sender":{
               "reference":"Organization/01010101-0101-4101-8101-010101010101"
            },
            "destination":[
               {
                  "name":"STREAMS",
                  "endpoint":"RAL"
               }
            ],
            "event":{
               "system":"http://terminology.hl7.org/CodeSystem/v2-0003",
               "code":"A01"
            },
            "resourceType":"MessageHeader",
            "responsible":{
               "reference":"Organization/03030303-0303-4303-8303-030303030303"
            },
            "source":{
               "name":"CERNER",
               "endpoint":"3.2-two"
            },
            "language":"ENG",
            "meta":{
               "security":[
                  {
                     "code":"8-Security"
                  }
               ],
               "tag":[
                  {
                     "system":"http://terminology.hl7.org/CodeSystem/v2-0103",
                     "code":"T"
                  },
                  {
                     "code":"11.2-processing",
                     "system":"http://terminology.hl7.org/CodeSystem/v2-0207"
                  }
               ]
            },
            "receiver":{
               "reference":"Organization/02020202-0202-4202-8202-020202020202"
            },
            "id":"04040404-0404-4404-8404-040404040404"
         },
         "request":{
            "url":"MessageHeader/04040404-0404-4404-8404-040404040404",
            "method":"PUT"
         }
      },
      {
         "resource":{
            "resourceType":"Device",
            "identifier":[
               {
                  "value":"CERNER"
               }
            ],
            "id":"05050505-0505-4505-8505-050505050505"
         },
         "request":{
            "method":"PUT",
            "url":"Device/05050505-0505-4505-8505-050505050505"
         }
      },
      {
         "request":{
            "method":"PUT",
            "url":"Provenance/06060606-0606-4606-8606-060606060606"
         },
         "resource":{
            "id":"06060606-0606-4606-8606-060606060606",
            "resourceType":"Provenance",
            "agent":[
               {
                  "whoReference":{
                     "reference":"Device/05050505-0505-4505-8505-050505050505"
                  }
               }
            ],
            "recorded":"2019-03-09T13:01:56.9339Z",
            "target":[
               {
                  "reference":"MessageHeader/04040404-0404-4404-8404-040404040404"
               }
            ]
         }
      }
   ]
}
