{
   "identifier":{
      "value":"5"
   },
   "resourceType":"Bundle",
   "type":"transaction",
   "entry":[
      {
         "resource":{
            "address":[
               {
                  "country":"44"
               }
            ],
            "identifier":[
               {
                  "value":"SFAC"
               }
            ],
            "id":"01010101-0101-4101-8101-010101010101",
            "resourceType":"Organization"
         },
         "request":{
            "method":"PUT",
            "url":"Organization/01010101-0101-4101-8101-010101010101"
         }
      },
      {
         "resource":{
            "resourceType":"Organization",
            "identifier":[
               {
                  "value":"RFAC"
               }
            ],
            "id":"02020202-0202-4202-8202-020202020202"
         },
         "request":{
            "url":"Organization/02020202-0202-4202-8202-020202020202",
            "method":"PUT"
         }
      },
      {
         "resource":{
            "sender":{
               "reference":"Organization/01010101-0101-4101-8101-010101010101"
            },
            "receiver":{
               "reference":"Organization/02020202-0202-4202-8202-020202020202"
            },
            "resourceType":"MessageHeader",
            "meta":{
               "tag":[
                  {
                     "system":"http://terminology.hl7.org/CodeSystem/v2-0103",
                     "code":"T"
                  },
                  {
                     "system":"http://terminology.hl7.org/CodeSystem/v2-0207"
                  }
               ]
            },
            "event":{
               "system":"http://terminology.hl7.org/CodeSystem/v2-0003",
               "code":"A08"
            },
            "timestamp":"2020-06-09T23:12:25.9669Z",
            "destination":[
               {
                  "endpoint":"RFAC",
                  "name":"RAPP"
               }
            ],
            "id":"03030303-0303-4303-8303-030303030303",
            "source":{
               "name":"SIMHOSP",
               "endpoint":"unknown"
            }
         },
         "request":{
            "url":"MessageHeader/03030303-0303-4303-8303-030303030303",
            "method":"PUT"
         }
      },
      {
         "resource":{
            "resourceType":"Device",
            "identifier":[
               {
                  "value":"SIMHOSP"
               }
            ],
            "id":"04040404-0404-4404-8404-040404040404"
         },
         "request":{
            "method":"PUT",
            "url":"Device/04040404-0404-4404-8404-040404040404"
         }
      },
      {
         "request":{
            "method":"PUT",
            "url":"Provenance/05050505-0505-4505-8505-050505050505"
         },
         "resource":{
            "agent":[
               {
                  "whoReference":{
                     "reference":"Device/04040404-0404-4404-8404-040404040404"
                  }
               }
            ],
            "recorded":"2020-06-09T23:12:25.9669Z",
            "target":[
               {
                  "reference":"MessageHeader/03030303-0303-4303-8303-030303030303"
               }
            ],
            "id":"05050505-0505-4505-8505-050505050505",
            "resourceType":"Provenance"
         }
      },
      {
         "request":{
            "url":"Patient/07070707-0707-4707-8707-070707070707",
            "method":"PUT"
         },
         "resource":{
            "gender":"female",
            "active":true,
            "name":[
               {
                  "suffix":[
                     "RN",
                     "D.D.S."
                  ],
                  "prefix":[
                     "Ms"
                  ],
                  "use":"anonymous",
                  "family":"Farr",
                  "given":[
                     "Jessica",
                     "Joanne"
                  ]
               }
            ],
            "birthDate":"1996-06-20",
            "identifier":[
               {
                  "value":"1490249144",
                  "type":{
                     "coding":[
                        {
                           "code":"MRN"
                        }
                     ]
                  }
               },
               {
                  "value":"1490249144",
                  "type":{
                     "coding":[
                        {
                           "code":"MRN"
                        }
                     ]
                  }
               },
               {
                  "type":{
                     "coding":[
                        {
                           "code":"NHSNMBR"
                        }
                     ]
                  },
                  "value":"5197323779"
               },
               {
                  "type":{
                     "coding":[
                        {
                           "code":"SB"
                        }
                     ]
                  }
               },
               {
                  "type":{
                     "coding":[
                        {
                           "code":"DL"
                        }
                     ]
                  }
               }
            ],
            "resourceType":"Patient",
            "id":"07070707-0707-4707-8707-070707070707",
            "address":[
               {
                  "city":"Ilford",
                  "postalCode":"OP44 4XK",
                  "country":"GBR",
                  "line":[
                     "158 Balcony Road"
                  ]
               }
            ],
            "telecom":[
               {
                  "value":"020 9540 6804",
                  "use":"home"
               }
            ]
         }
      },
      {
         "resource":{
            "resourceType":"Practitioner",
            "identifier":[
               {
                  "type":{
                     "coding":[
                        {
                           "code":"ORGDR"
                        }
                     ]
                  },
                  "value":"C006"
               }
            ],
            "name":[
               {
                  "use":"anonymous",
                  "family":"Woolfson",
                  "given":[
                     "Kathleen"
                  ],
                  "prefix":[
                     "Dr"
                  ]
               }
            ],
            "id":"08080808-0808-4808-8808-080808080808"
         },
         "request":{
            "method":"PUT",
            "url":"Practitioner/08080808-0808-4808-8808-080808080808"
         }
      },
      {
         "resource":{
            "resourceType":"Condition",
            "code":{
               "text":"Thrill",
               "coding":[
                  {
                     "display":"Thrill",
                     "system":"SNM3",
                     "code":"1735007"
                  }
               ]
            },
            "onsetDateTime":"2019-10-20T23:12:26+10:00",
            "asserter":{
               "reference":"Practitioner/08080808-0808-4808-8808-080808080808"
            },
            "subject":{
               "reference":"Patient/07070707-0707-4707-8707-070707070707"
            },
            "id":"09090909-0909-4909-8909-090909090909"
         },
         "request":{
            "url":"Condition/09090909-0909-4909-8909-090909090909",
            "method":"PUT"
         }
      },
      {
         "resource":{
            "status":"finished",
            "diagnosis":[
               {
                  "role":{
                     "coding":[
                        {
                           "code":"W"
                        }
                     ]
                  },
                  "condition":{
                     "reference":"Condition/09090909-0909-4909-8909-090909090909"
                  }
               }
            ],
            "patient":{
               "reference":"Patient/07070707-0707-4707-8707-070707070707"
            },
            "id":"0a0a0a0a-0a0a-4a0a-8a0a-0a0a0a0a0a0a",
            "resourceType":"EpisodeOfCare"
         },
         "request":{
            "method":"PUT",
            "url":"EpisodeOfCare/0a0a0a0a-0a0a-4a0a-8a0a-0a0a0a0a0a0a"
         }
      },
      {
         "resource":{
            "diagnosis":[
               {
                  "condition":{
                     "reference":"Condition/09090909-0909-4909-8909-090909090909"
                  }
               }
            ],
            "episodeOfCare":[
               {
                  "reference":"EpisodeOfCare/0a0a0a0a-0a0a-4a0a-8a0a-0a0a0a0a0a0a"
               }
            ],
            "subject":{
               "reference":"Patient/07070707-0707-4707-8707-070707070707"
            },
            "id":"0b0b0b0b-0b0b-4b0b-8b0b-0b0b0b0b0b0b",
            "resourceType":"Encounter",
            "class":{
               "display":"",
               "system":"http://terminology.hl7.org/CodeSystem/v3-ActCode",
               "code":"unknown",
               "version":"v1"
            },
            "identifier":[
               {
                  "type":{
                     "text":"visit number",
                     "coding":[
                        {
                           "code":"VN",
                           "system":"http://terminology.hl7.org/CodeSystem/v2-0203"
                        }
                     ]
                  }
               }
            ],
            "status":"in-progress"
         },
         "request":{
            "method":"PUT",
            "url":"Encounter/0b0b0b0b-0b0b-4b0b-8b0b-0b0b0b0b0b0b"
         }
      }
   ]
}
