{
   "identifier":{
      "value":"2"
   },
   "resourceType":"Bundle",
   "type":"transaction",
   "entry":[
      {
         "resource":{
            "id":"01010101-0101-4101-8101-010101010101",
            "address":[
               {
                  "country":"44"
               }
            ],
            "resourceType":"Organization",
            "identifier":[
               {
                  "value":"SFAC"
               }
            ]
         },
         "request":{
            "method":"PUT",
            "url":"Organization/01010101-0101-4101-8101-010101010101"
         }
      },
      {
         "request":{
            "url":"Organization/02020202-0202-4202-8202-020202020202",
            "method":"PUT"
         },
         "resource":{
            "resourceType":"Organization",
            "identifier":[
               {
                  "value":"RFAC"
               }
            ],
            "id":"02020202-0202-4202-8202-020202020202"
         }
      },
      {
         "resource":{
            "sender":{
               "reference":"Organization/01010101-0101-4101-8101-010101010101"
            },
            "receiver":{
               "reference":"Organization/02020202-0202-4202-8202-020202020202"
            },
            "source":{
               "name":"SIMHOSP",
               "endpoint":"unknown"
            },
            "resourceType":"MessageHeader",
            "id":"03030303-0303-4303-8303-030303030303",
            "timestamp":"2020-06-09T23:03:55.9669Z",
            "destination":[
               {
                  "name":"RAPP",
                  "endpoint":"RFAC"
               }
            ],
            "event":{
               "code":"A31",
               "system":"http://terminology.hl7.org/CodeSystem/v2-0003"
            },
            "meta":{
               "tag":[
                  {
                     "system":"http://terminology.hl7.org/CodeSystem/v2-0103",
                     "code":"T"
                  },
                  {
                     "system":"http://terminology.hl7.org/CodeSystem/v2-0207"
                  }
               ]
            }
         },
         "request":{
            "method":"PUT",
            "url":"MessageHeader/03030303-0303-4303-8303-030303030303"
         }
      },
      {
         "resource":{
            "identifier":[
               {
                  "value":"SIMHOSP"
               }
            ],
            "id":"04040404-0404-4404-8404-040404040404",
            "resourceType":"Device"
         },
         "request":{
            "method":"PUT",
            "url":"Device/04040404-0404-4404-8404-040404040404"
         }
      },
      {
         "request":{
            "url":"Provenance/05050505-0505-4505-8505-050505050505",
            "method":"PUT"
         },
         "resource":{
            "resourceType":"Provenance",
            "agent":[
               {
                  "whoReference":{
                     "reference":"Device/04040404-0404-4404-8404-040404040404"
                  }
               }
            ],
            "recorded":"2020-06-09T23:03:55.9669Z",
            "target":[
               {
                  "reference":"MessageHeader/03030303-0303-4303-8303-030303030303"
               }
            ],
            "id":"05050505-0505-4505-8505-050505050505"
         }
      },
      {
         "resource":{
            "resourceType":"Patient",
            "identifier":[
               {
                  "type":{
                     "coding":[
                        {
                           "code":"MRN"
                        }
                     ]
                  },
                  "value":"3972318687"
               },
               {
                  "value":"3972318687",
                  "type":{
                     "coding":[
                        {
                           "code":"MRN"
                        }
                     ]
                  }
               },
               {
                  "value":"4280099111",
                  "type":{
                     "coding":[
                        {
                           "code":"NHSNMBR"
                        }
                     ]
                  }
               },
               {
                  "type":{
                     "coding":[
                        {
                           "code":"SB"
                        }
                     ]
                  }
               },
               {
                  "type":{
                     "coding":[
                        {
                           "code":"DL"
                        }
                     ]
                  }
               }
            ],
            "gender":"female",
            "id":"07070707-0707-4707-8707-070707070707",
            "address":[
               {
                  "city":"Westerham",
                  "postalCode":"NU3 9BI",
                  "country":"GBR",
                  "line":[
                     "73 Diaphragm House",
                     "Goal Road"
                  ]
               }
            ],
            "active":true,
            "telecom":[
               {
                  "value":"079 1177 0014",
                  "use":"home"
               }
            ],
            "birthDate":"1957-04-08",
            "name":[
               {
                  "given":[
                     "Catherine"
                  ],
                  "prefix":[
                     "Mrs"
                  ],
                  "use":"anonymous",
                  "family":"Commander"
               }
            ]
         },
         "request":{
            "url":"Patient/07070707-0707-4707-8707-070707070707",
            "method":"PUT"
         }
      },
      {
         "resource":{
            "name":[
               {
                  "given":[
                     "Kathleen"
                  ],
                  "prefix":[
                     "Dr"
                  ],
                  "use":"anonymous",
                  "family":"Woolfson"
               }
            ],
            "id":"08080808-0808-4808-8808-080808080808",
            "resourceType":"Practitioner",
            "identifier":[
               {
                  "type":{
                     "coding":[
                        {
                           "code":"ORGDR"
                        }
                     ]
                  },
                  "value":"C006"
               }
            ]
         },
         "request":{
            "url":"Practitioner/08080808-0808-4808-8808-080808080808",
            "method":"PUT"
         }
      },
      {
         "resource":{
            "resourceType":"Condition",
            "code":{
               "coding":[
                  {
                     "display":"Heel pain",
                     "system":"SNM3",
                     "code":"2733002"
                  }
               ],
               "text":"Heel pain"
            },
            "onsetDateTime":"2020-04-10T23:03:56+04:00",
            "asserter":{
               "reference":"Practitioner/08080808-0808-4808-8808-080808080808"
            },
            "subject":{
               "reference":"Patient/07070707-0707-4707-8707-070707070707"
            },
            "id":"09090909-0909-4909-8909-090909090909"
         },
         "request":{
            "method":"PUT",
            "url":"Condition/09090909-0909-4909-8909-090909090909"
         }
      },
      {
         "request":{
            "method":"PUT",
            "url":"EpisodeOfCare/0a0a0a0a-0a0a-4a0a-8a0a-0a0a0a0a0a0a"
         },
         "resource":{
            "resourceType":"EpisodeOfCare",
            "status":"finished",
            "diagnosis":[
               {
                  "condition":{
                     "reference":"Condition/09090909-0909-4909-8909-090909090909"
                  },
                  "role":{
                     "coding":[
                        {
                           "code":"F"
                        }
                     ]
                  }
               }
            ],
            "patient":{
               "reference":"Patient/07070707-0707-4707-8707-070707070707"
            },
            "id":"0a0a0a0a-0a0a-4a0a-8a0a-0a0a0a0a0a0a"
         }
      },
      {
         "resource":{
            "episodeOfCare":[
               {
                  "reference":"EpisodeOfCare/0a0a0a0a-0a0a-4a0a-8a0a-0a0a0a0a0a0a"
               }
            ],
            "subject":{
               "reference":"Patient/07070707-0707-4707-8707-070707070707"
            },
            "id":"0b0b0b0b-0b0b-4b0b-8b0b-0b0b0b0b0b0b",
            "resourceType":"Encounter",
            "class":{
               "code":"unknown",
               "version":"v1",
               "display":"",
               "system":"http://terminology.hl7.org/CodeSystem/v3-ActCode"
            },
            "identifier":[
               {
                  "type":{
                     "text":"visit number",
                     "coding":[
                        {
                           "system":"http://terminology.hl7.org/CodeSystem/v2-0203",
                           "code":"VN"
                        }
                     ]
                  }
               }
            ],
            "status":"in-progress",
            "diagnosis":[
               {
                  "condition":{
                     "reference":"Condition/09090909-0909-4909-8909-090909090909"
                  }
               }
            ]
         },
         "request":{
            "url":"Encounter/0b0b0b0b-0b0b-4b0b-8b0b-0b0b0b0b0b0b",
            "method":"PUT"
         }
      }
   ]
}
