{
   "entry":[
      {
         "request":{
            "method":"PUT",
            "url":"Organization/01010101-0101-4101-8101-010101010101"
         },
         "resource":{
            "identifier":[
               {
                  "value":"SFAC"
               }
            ],
            "id":"01010101-0101-4101-8101-010101010101",
            "address":[
               {
                  "country":"44"
               }
            ],
            "resourceType":"Organization"
         }
      },
      {
         "resource":{
            "id":"02020202-0202-4202-8202-020202020202",
            "resourceType":"Organization",
            "identifier":[
               {
                  "value":"RFAC"
               }
            ]
         },
         "request":{
            "url":"Organization/02020202-0202-4202-8202-020202020202",
            "method":"PUT"
         }
      },
      {
         "resource":{
            "event":{
               "system":"http://terminology.hl7.org/CodeSystem/v2-0003",
               "code":"A08"
            },
            "meta":{
               "tag":[
                  {
                     "code":"T",
                     "system":"http://terminology.hl7.org/CodeSystem/v2-0103"
                  },
                  {
                     "system":"http://terminology.hl7.org/CodeSystem/v2-0207"
                  }
               ]
            },
            "destination":[
               {
                  "endpoint":"RFAC",
                  "name":"RAPP"
               }
            ],
            "timestamp":"2020-06-09T23:12:26.9669Z",
            "receiver":{
               "reference":"Organization/02020202-0202-4202-8202-020202020202"
            },
            "sender":{
               "reference":"Organization/01010101-0101-4101-8101-010101010101"
            },
            "id":"03030303-0303-4303-8303-030303030303",
            "resourceType":"MessageHeader",
            "source":{
               "name":"SIMHOSP",
               "endpoint":"unknown"
            }
         },
         "request":{
            "url":"MessageHeader/03030303-0303-4303-8303-030303030303",
            "method":"PUT"
         }
      },
      {
         "resource":{
            "identifier":[
               {
                  "value":"SIMHOSP"
               }
            ],
            "id":"04040404-0404-4404-8404-040404040404",
            "resourceType":"Device"
         },
         "request":{
            "method":"PUT",
            "url":"Device/04040404-0404-4404-8404-040404040404"
         }
      },
      {
         "request":{
            "method":"PUT",
            "url":"Provenance/05050505-0505-4505-8505-050505050505"
         },
         "resource":{
            "target":[
               {
                  "reference":"MessageHeader/03030303-0303-4303-8303-030303030303"
               }
            ],
            "id":"05050505-0505-4505-8505-050505050505",
            "resourceType":"Provenance",
            "agent":[
               {
                  "whoReference":{
                     "reference":"Device/04040404-0404-4404-8404-040404040404"
                  }
               }
            ],
            "recorded":"2020-06-09T23:12:26.9669Z"
         }
      },
      {
         "resource":{
            "name":[
               {
                  "use":"anonymous",
                  "family":"Wiseman",
                  "given":[
                     "Neil"
                  ],
                  "prefix":[
                     "Mr"
                  ]
               }
            ],
            "identifier":[
               {
                  "value":"3851333960",
                  "type":{
                     "coding":[
                        {
                           "code":"MRN"
                        }
                     ]
                  }
               },
               {
                  "type":{
                     "coding":[
                        {
                           "code":"MRN"
                        }
                     ]
                  },
                  "value":"3851333960"
               },
               {
                  "type":{
                     "coding":[
                        {
                           "code":"NHSNMBR"
                        }
                     ]
                  },
                  "value":"4528328313"
               },
               {
                  "type":{
                     "coding":[
                        {
                           "code":"SB"
                        }
                     ]
                  }
               },
               {
                  "type":{
                     "coding":[
                        {
                           "code":"DL"
                        }
                     ]
                  }
               }
            ],
            "telecom":[
               {
                  "value":"077 5187 2717",
                  "use":"home"
               }
            ],
            "id":"07070707-0707-4707-8707-070707070707",
            "gender":"male",
            "birthDate":"1945-12-04",
            "active":true,
            "resourceType":"Patient",
            "address":[
               {
                  "line":[
                     "177 Treat Square"
                  ],
                  "city":"Ilford",
                  "postalCode":"GO24 8CR",
                  "country":"GBR"
               }
            ]
         },
         "request":{
            "method":"PUT",
            "url":"Patient/07070707-0707-4707-8707-070707070707"
         }
      },
      {
         "resource":{
            "name":[
               {
                  "given":[
                     "Elizabeth"
                  ],
                  "prefix":[
                     "Dr"
                  ],
                  "use":"anonymous",
                  "family":"Smith"
               }
            ],
            "id":"08080808-0808-4808-8808-080808080808",
            "resourceType":"Practitioner",
            "identifier":[
               {
                  "type":{
                     "coding":[
                        {
                           "code":"ORGDR"
                        }
                     ]
                  },
                  "value":"C002"
               }
            ]
         },
         "request":{
            "method":"PUT",
            "url":"Practitioner/08080808-0808-4808-8808-080808080808"
         }
      },
      {
         "request":{
            "method":"PUT",
            "url":"Condition/09090909-0909-4909-8909-090909090909"
         },
         "resource":{
            "code":{
               "text":"Acute disease",
               "coding":[
                  {
                     "system":"SNM3",
                     "code":"2704003",
                     "display":"Acute disease"
                  }
               ]
            },
            "onsetDateTime":"2020-06-01T23:12:27+06:00",
            "asserter":{
               "reference":"Practitioner/08080808-0808-4808-8808-080808080808"
            },
            "subject":{
               "reference":"Patient/07070707-0707-4707-8707-070707070707"
            },
            "id":"09090909-0909-4909-8909-090909090909",
            "resourceType":"Condition"
         }
      },
      {
         "resource":{
            "diagnosis":[
               {
                  "role":{
                     "coding":[
                        {
                           "code":"W"
                        }
                     ]
                  },
                  "condition":{
                     "reference":"Condition/09090909-0909-4909-8909-090909090909"
                  }
               }
            ],
            "patient":{
               "reference":"Patient/07070707-0707-4707-8707-070707070707"
            },
            "id":"0a0a0a0a-0a0a-4a0a-8a0a-0a0a0a0a0a0a",
            "resourceType":"EpisodeOfCare",
            "status":"finished"
         },
         "request":{
            "url":"EpisodeOfCare/0a0a0a0a-0a0a-4a0a-8a0a-0a0a0a0a0a0a",
            "method":"PUT"
         }
      },
      {
         "resource":{
            "diagnosis":[
               {
                  "condition":{
                     "reference":"Condition/09090909-0909-4909-8909-090909090909"
                  }
               }
            ],
            "episodeOfCare":[
               {
                  "reference":"EpisodeOfCare/0a0a0a0a-0a0a-4a0a-8a0a-0a0a0a0a0a0a"
               }
            ],
            "subject":{
               "reference":"Patient/07070707-0707-4707-8707-070707070707"
            },
            "id":"0b0b0b0b-0b0b-4b0b-8b0b-0b0b0b0b0b0b",
            "resourceType":"Encounter",
            "class":{
               "system":"http://terminology.hl7.org/CodeSystem/v3-ActCode",
               "code":"unknown",
               "version":"v1",
               "display":""
            },
            "identifier":[
               {
                  "type":{
                     "coding":[
                        {
                           "system":"http://terminology.hl7.org/CodeSystem/v2-0203",
                           "code":"VN"
                        }
                     ],
                     "text":"visit number"
                  }
               }
            ],
            "status":"in-progress"
         },
         "request":{
            "method":"PUT",
            "url":"Encounter/0b0b0b0b-0b0b-4b0b-8b0b-0b0b0b0b0b0b"
         }
      }
   ],
   "identifier":{
      "value":"7"
   },
   "resourceType":"Bundle",
   "type":"transaction"
}
