{
   "type":"transaction",
   "entry":[
      {
         "resource":{
            "identifier":[
               {
                  "value":"6020",
                  "type":{
                     "coding":[
                        {
                           "code":"CLN",
                           "system":"http://terminology.hl7.org/CodeSystem/v2-0203"
                        }
                     ]
                  }
               }
            ],
            "id":"01010101-0101-4101-8101-010101010101",
            "resourceType":"Organization",
            "name":"YIEWSLEY FAMILY PRACTICE"
         },
         "request":{
            "method":"PUT",
            "url":"Organization/01010101-0101-4101-8101-010101010101"
         }
      },
      {
         "resource":{
            "id":"02020202-0202-4202-8202-020202020202",
            "resourceType":"Practitioner",
            "identifier":[
               {
                  "type":{
                     "coding":[
                        {
                           "code":"CC"
                        }
                     ]
                  },
                  "value":"C184726198"
               }
            ],
            "name":[
               {
                  "given":[
                     "Alistair",
                     "Alex"
                  ],
                  "suffix":[
                     "Sr",
                     "MD",
                     "MSc."
                  ],
                  "prefix":[
                     "Dr"
                  ],
                  "use":"official",
                  "period":{
                     "end":"2018-07-25T14:01:56+07:00",
                     "start":"2018-07-25T14:01:56+07:00"
                  },
                  "family":"Connell"
               }
            ]
         },
         "request":{
            "method":"PUT",
            "url":"Practitioner/02020202-0202-4202-8202-020202020202"
         }
      },
      {
         "resource":{
            "meta":{
               "lastUpdated":"2018-07-25T14:01:56+07:00"
            },
            "active":true,
            "deceasedDateTime":"2018-07-25T14:01:56+07:00",
            "telecom":[
               {
                  "use":"home",
                  "value":"020 0921 5742"
               },
               {
                  "value":"020 0921 5748",
                  "use":"work"
               },
               {
                  "value":"020 0921 5700",
                  "use":"home"
               }
            ],
            "birthDate":"1994-06-15",
            "name":[
               {
                  "prefix":[
                     "Miss"
                  ],
                  "use":"anonymous",
                  "period":{
                     "start":"2018-07-25T14:01:56+07:00",
                     "end":"2018-07-25T14:01:56+07:00"
                  },
                  "family":"Doe",
                  "given":[
                     "Jane",
                     "Janny"
                  ],
                  "suffix":[
                     "Jr",
                     "PhD",
                     "Eng."
                  ]
               },
               {
                  "period":{
                     "end":"2018-07-25T14:01:56+07:00",
                     "start":"2018-07-25T14:01:56+07:00"
                  },
                  "family":"Al-Doe",
                  "given":[
                     "Al-Jane",
                     "Al-Janny"
                  ],
                  "suffix":[
                     "Al-Jr",
                     "Al-PhD",
                     "Al-Eng."
                  ],
                  "prefix":[
                     "Al-Miss"
                  ],
                  "use":"anonymous"
               }
            ],
            "maritalStatus":{
               "coding":[
                  {
                     "code":"MARRIED"
                  }
               ]
            },
            "identifier":[
               {
                  "value":"1419055458",
                  "type":{
                     "coding":[
                        {
                           "code":"MRN"
                        }
                     ]
                  }
               },
               {
                  "type":{
                     "coding":[
                        {
                           "code":"MRN"
                        }
                     ]
                  },
                  "value":"1419055458"
               },
               {
                  "type":{
                     "coding":[
                        {
                           "code":"NHSNMBR"
                        }
                     ]
                  },
                  "value":"3870146052"
               },
               {
                  "type":{
                     "coding":[
                        {
                           "code":"MRN4"
                        }
                     ]
                  },
                  "value":"1419055459"
               },
               {
                  "value":"SSN-48383",
                  "type":{
                     "coding":[
                        {
                           "code":"SB"
                        }
                     ]
                  }
               },
               {
                  "type":{
                     "coding":[
                        {
                           "code":"DL"
                        }
                     ]
                  },
                  "value":"43211234"
               }
            ],
            "id":"03030303-0303-4303-8303-030303030303",
            "resourceType":"Patient",
            "multipleBirthInteger":2,
            "address":[
               {
                  "state":"N/A",
                  "postalCode":"SV20 3BC",
                  "country":"GBR",
                  "period":{
                     "start":"2018-07-25T14:01:56+07:00",
                     "end":"2018-07-25T14:01:56+07:00"
                  },
                  "line":[
                     "25 Dahlia House",
                     "Plough Avenue",
                     "Some Guy"
                  ],
                  "city":"Croydon"
               }
            ],
            "gender":"unknown",
            "generalPractitioner":[
               {
                  "reference":"Organization/01010101-0101-4101-8101-010101010101"
               },
               {
                  "reference":"Practitioner/02020202-0202-4202-8202-020202020202"
               }
            ]
         },
         "request":{
            "method":"PUT",
            "url":"Patient/03030303-0303-4303-8303-030303030303"
         }
      },
      {
         "resource":{
            "identifier":[
               {
                  "type":{
                     "coding":[
                        {
                           "code":"ORGDR"
                        }
                     ]
                  },
                  "value":"C3557206"
               }
            ],
            "name":[
               {
                  "use":"anonymous",
                  "family":"Prout",
                  "given":[
                     "J"
                  ],
                  "prefix":[
                     "Dr"
                  ]
               }
            ],
            "id":"04040404-0404-4404-8404-040404040404",
            "resourceType":"Practitioner"
         },
         "request":{
            "url":"Practitioner/04040404-0404-4404-8404-040404040404",
            "method":"PUT"
         }
      },
      {
         "request":{
            "method":"PUT",
            "url":"Practitioner/06060606-0606-4606-8606-060606060606"
         },
         "resource":{
            "id":"06060606-0606-4606-8606-060606060606",
            "resourceType":"Practitioner",
            "identifier":[
               {
                  "type":{
                     "coding":[
                        {
                           "code":"ORGDR"
                        }
                     ]
                  },
                  "value":"C3557206"
               }
            ],
            "name":[
               {
                  "family":"Prout",
                  "given":[
                     "J"
                  ],
                  "prefix":[
                     "Dr"
                  ],
                  "use":"anonymous"
               }
            ]
         }
      },
      {
         "resource":{
            "subject":{
               "reference":"Patient/03030303-0303-4303-8303-030303030303"
            },
            "id":"05050505-0505-4505-8505-050505050505",
            "resourceType":"Condition",
            "code":{
               "text":"Chest pain on breathing",
               "coding":[
                  {
                     "display":"Chest pain on breathing",
                     "code":"R07.1"
                  }
               ]
            },
            "onsetDateTime":"2019-03-09T14:01:56+03:00",
            "asserter":{
               "reference":"Practitioner/04040404-0404-4404-8404-040404040404"
            },
            "identifier":[
               {
                  "value":"EI29202"
               }
            ]
         },
         "request":{
            "method":"PUT",
            "url":"Condition/05050505-0505-4505-8505-050505050505"
         }
      },
      {
         "resource":{
            "resourceType":"Condition",
            "code":{
               "coding":[
                  {
                     "display":"Chest pain on breathing2",
                     "code":"R07.2"
                  }
               ],
               "text":"Chest pain on breathing2"
            },
            "onsetDateTime":"2019-03-09T14:01:56+03:00",
            "asserter":{
               "reference":"Practitioner/06060606-0606-4606-8606-060606060606"
            },
            "identifier":[
               {
                  "value":"EI29204"
               }
            ],
            "subject":{
               "reference":"Patient/03030303-0303-4303-8303-030303030303"
            },
            "id":"07070707-0707-4707-8707-070707070707"
         },
         "request":{
            "url":"Condition/07070707-0707-4707-8707-070707070707",
            "method":"PUT"
         }
      },
      {
         "request":{
            "method":"PUT",
            "url":"Location/0b0b0b0b-0b0b-4b0b-8b0b-0b0b0b0b0b0b"
         },
         "resource":{
            "id":"0b0b0b0b-0b0b-4b0b-8b0b-0b0b0b0b0b0b",
            "partOf":{
               "reference":"Location/09090909-0909-4909-8909-090909090909"
            },
            "resourceType":"Location",
            "name":"Orthopaedic",
            "mode":"instance",
            "physicalType":{
               "coding":[
                  {
                     "system":"http://terminology.hl7.org/CodeSystem/location-physical-type",
                     "code":"si"
                  }
               ]
            }
         }
      },
      {
         "resource":{
            "physicalType":{
               "coding":[
                  {
                     "code":"ro",
                     "system":"http://terminology.hl7.org/CodeSystem/location-physical-type"
                  }
               ]
            },
            "id":"0c0c0c0c-0c0c-4c0c-8c0c-0c0c0c0c0c0c",
            "resourceType":"Location",
            "name":"Bay A",
            "mode":"instance",
            "partOf":{
               "reference":"Location/0b0b0b0b-0b0b-4b0b-8b0b-0b0b0b0b0b0b"
            }
         },
         "request":{
            "method":"PUT",
            "url":"Location/0c0c0c0c-0c0c-4c0c-8c0c-0c0c0c0c0c0c"
         }
      },
      {
         "resource":{
            "name":"Bed 1",
            "mode":"instance",
            "physicalType":{
               "coding":[
                  {
                     "system":"http://terminology.hl7.org/CodeSystem/location-physical-type",
                     "code":"bd"
                  }
               ]
            },
            "id":"0d0d0d0d-0d0d-4d0d-8d0d-0d0d0d0d0d0d",
            "partOf":{
               "reference":"Location/0c0c0c0c-0c0c-4c0c-8c0c-0c0c0c0c0c0c"
            },
            "resourceType":"Location"
         },
         "request":{
            "url":"Location/0d0d0d0d-0d0d-4d0d-8d0d-0d0d0d0d0d0d",
            "method":"PUT"
         }
      },
      {
         "resource":{
            "name":"Simulated Hospital",
            "mode":"instance",
            "physicalType":{
               "coding":[
                  {
                     "code":"si",
                     "system":"http://terminology.hl7.org/CodeSystem/location-physical-type"
                  }
               ]
            },
            "id":"08080808-0808-4808-8808-080808080808",
            "resourceType":"Location"
         },
         "request":{
            "method":"PUT",
            "url":"Location/08080808-0808-4808-8808-080808080808"
         }
      },
      {
         "resource":{
            "resourceType":"Location",
            "partOf":{
               "reference":"Location/08080808-0808-4808-8808-080808080808"
            },
            "name":"Orthopaedic ward",
            "mode":"instance",
            "physicalType":{
               "coding":[
                  {
                     "system":"http://terminology.hl7.org/CodeSystem/location-physical-type",
                     "code":"bu"
                  }
               ]
            },
            "id":"09090909-0909-4909-8909-090909090909"
         },
         "request":{
            "method":"PUT",
            "url":"Location/09090909-0909-4909-8909-090909090909"
         }
      },
      {
         "resource":{
            "name":"1",
            "mode":"instance",
            "partOf":{
               "reference":"Location/09090909-0909-4909-8909-090909090909"
            },
            "physicalType":{
               "coding":[
                  {
                     "system":"http://terminology.hl7.org/CodeSystem/location-physical-type",
                     "code":"lvl"
                  }
               ]
            },
            "id":"0a0a0a0a-0a0a-4a0a-8a0a-0a0a0a0a0a0a",
            "resourceType":"Location"
         },
         "request":{
            "method":"PUT",
            "url":"Location/0a0a0a0a-0a0a-4a0a-8a0a-0a0a0a0a0a0a"
         }
      },
      {
         "resource":{
            "resourceType":"Location",
            "partOf":{
               "reference":"Location/0f0f0f0f-0f0f-4f0f-8f0f-0f0f0f0f0f0f"
            },
            "name":"PV1-6-Orthopaedic",
            "mode":"instance",
            "physicalType":{
               "coding":[
                  {
                     "code":"si",
                     "system":"http://terminology.hl7.org/CodeSystem/location-physical-type"
                  }
               ]
            },
            "id":"11111111-1111-4111-9111-111111111111"
         },
         "request":{
            "method":"PUT",
            "url":"Location/11111111-1111-4111-9111-111111111111"
         }
      },
      {
         "request":{
            "method":"PUT",
            "url":"Location/12121212-1212-4212-9212-121212121212"
         },
         "resource":{
            "mode":"instance",
            "physicalType":{
               "coding":[
                  {
                     "code":"ro",
                     "system":"http://terminology.hl7.org/CodeSystem/location-physical-type"
                  }
               ]
            },
            "id":"12121212-1212-4212-9212-121212121212",
            "resourceType":"Location",
            "name":"PV1-6-Bay A",
            "partOf":{
               "reference":"Location/11111111-1111-4111-9111-111111111111"
            }
         }
      },
      {
         "request":{
            "method":"PUT",
            "url":"Location/13131313-1313-4313-9313-131313131313"
         },
         "resource":{
            "id":"13131313-1313-4313-9313-131313131313",
            "partOf":{
               "reference":"Location/12121212-1212-4212-9212-121212121212"
            },
            "resourceType":"Location",
            "name":"PV1-6-Bed 1",
            "mode":"instance",
            "physicalType":{
               "coding":[
                  {
                     "system":"http://terminology.hl7.org/CodeSystem/location-physical-type",
                     "code":"bd"
                  }
               ]
            }
         }
      },
      {
         "resource":{
            "resourceType":"Location",
            "name":"PV1-6-Simulated Hospital",
            "mode":"instance",
            "physicalType":{
               "coding":[
                  {
                     "system":"http://terminology.hl7.org/CodeSystem/location-physical-type",
                     "code":"si"
                  }
               ]
            },
            "id":"0e0e0e0e-0e0e-4e0e-8e0e-0e0e0e0e0e0e"
         },
         "request":{
            "url":"Location/0e0e0e0e-0e0e-4e0e-8e0e-0e0e0e0e0e0e",
            "method":"PUT"
         }
      },
      {
         "request":{
            "url":"Location/0f0f0f0f-0f0f-4f0f-8f0f-0f0f0f0f0f0f",
            "method":"PUT"
         },
         "resource":{
            "partOf":{
               "reference":"Location/0e0e0e0e-0e0e-4e0e-8e0e-0e0e0e0e0e0e"
            },
            "physicalType":{
               "coding":[
                  {
                     "code":"bu",
                     "system":"http://terminology.hl7.org/CodeSystem/location-physical-type"
                  }
               ]
            },
            "id":"0f0f0f0f-0f0f-4f0f-8f0f-0f0f0f0f0f0f",
            "resourceType":"Location",
            "name":"PV1-6-Orthopaedic ward",
            "mode":"instance"
         }
      },
      {
         "request":{
            "method":"PUT",
            "url":"Location/10101010-1010-4010-9010-101010101010"
         },
         "resource":{
            "mode":"instance",
            "partOf":{
               "reference":"Location/0f0f0f0f-0f0f-4f0f-8f0f-0f0f0f0f0f0f"
            },
            "physicalType":{
               "coding":[
                  {
                     "code":"lvl",
                     "system":"http://terminology.hl7.org/CodeSystem/location-physical-type"
                  }
               ]
            },
            "id":"10101010-1010-4010-9010-101010101010",
            "resourceType":"Location",
            "name":"PV1-6-0"
         }
      },
      {
         "resource":{
            "identifier":[
               {
                  "value":"C184726198",
                  "type":{
                     "coding":[
                        {
                           "code":"CC"
                        }
                     ]
                  }
               }
            ],
            "name":[
               {
                  "prefix":[
                     "Dr"
                  ],
                  "use":"official",
                  "period":{
                     "start":"2018-07-25T14:01:56+07:00",
                     "end":"2018-07-25T14:01:56+07:00"
                  },
                  "family":"Connell",
                  "given":[
                     "Alistair",
                     "Alex"
                  ],
                  "suffix":[
                     "Sr",
                     "MD",
                     "MSc."
                  ]
               }
            ],
            "id":"14141414-1414-4414-9414-141414141414",
            "resourceType":"Practitioner"
         },
         "request":{
            "url":"Practitioner/14141414-1414-4414-9414-141414141414",
            "method":"PUT"
         }
      },
      {
         "resource":{
            "identifier":[
               {
                  "type":{
                     "coding":[
                        {
                           "code":"CC"
                        }
                     ]
                  },
                  "value":"C184726198"
               }
            ],
            "name":[
               {
                  "period":{
                     "end":"2018-07-25T14:01:56+07:00",
                     "start":"2018-07-25T14:01:56+07:00"
                  },
                  "family":"Connell",
                  "given":[
                     "Alistair",
                     "Alex"
                  ],
                  "suffix":[
                     "Sr",
                     "MD",
                     "MSc."
                  ],
                  "prefix":[
                     "Dr"
                  ],
                  "use":"official"
               }
            ],
            "id":"15151515-1515-4515-9515-151515151515",
            "resourceType":"Practitioner"
         },
         "request":{
            "method":"PUT",
            "url":"Practitioner/15151515-1515-4515-9515-151515151515"
         }
      },
      {
         "resource":{
            "name":[
               {
                  "prefix":[
                     "Dr"
                  ],
                  "use":"official",
                  "period":{
                     "end":"2018-07-25T14:01:56+07:00",
                     "start":"2018-07-25T14:01:56+07:00"
                  },
                  "family":"Connell",
                  "given":[
                     "Alistair",
                     "Alex"
                  ],
                  "suffix":[
                     "Sr",
                     "MD",
                     "MSc."
                  ]
               }
            ],
            "id":"16161616-1616-4616-9616-161616161616",
            "resourceType":"Practitioner",
            "identifier":[
               {
                  "value":"C184726198",
                  "type":{
                     "coding":[
                        {
                           "code":"CC"
                        }
                     ]
                  }
               }
            ]
         },
         "request":{
            "url":"Practitioner/16161616-1616-4616-9616-161616161616",
            "method":"PUT"
         }
      },
      {
         "resource":{
            "resourceType":"Practitioner",
            "identifier":[
               {
                  "type":{
                     "coding":[
                        {
                           "code":"CC"
                        }
                     ]
                  },
                  "value":"C184726198"
               }
            ],
            "name":[
               {
                  "prefix":[
                     "Dr"
                  ],
                  "use":"official",
                  "period":{
                     "end":"2018-07-25T14:01:56+07:00",
                     "start":"2018-07-25T14:01:56+07:00"
                  },
                  "family":"Connell",
                  "given":[
                     "Alistair",
                     "Alex"
                  ],
                  "suffix":[
                     "Sr",
                     "MD",
                     "MSc."
                  ]
               }
            ],
            "id":"17171717-1717-4717-9717-171717171717"
         },
         "request":{
            "url":"Practitioner/17171717-1717-4717-9717-171717171717",
            "method":"PUT"
         }
      },
      {
         "request":{
            "method":"PUT",
            "url":"Location/18181818-1818-4818-9818-181818181818"
         },
         "resource":{
            "resourceType":"Location",
            "identifier":[
               {
                  "value":"New Home"
               }
            ],
            "id":"18181818-1818-4818-9818-181818181818"
         }
      },
      {
         "resource":{
            "id":"19191919-1919-4919-9919-191919191919",
            "resourceType":"Practitioner",
            "identifier":[
               {
                  "type":{
                     "coding":[
                        {
                           "code":"CC"
                        }
                     ]
                  },
                  "value":"C184726198"
               }
            ],
            "name":[
               {
                  "suffix":[
                     "Sr",
                     "MD",
                     "MSc."
                  ],
                  "prefix":[
                     "Dr"
                  ],
                  "use":"official",
                  "period":{
                     "end":"2018-07-25T14:01:56+07:00",
                     "start":"2018-07-25T14:01:56+07:00"
                  },
                  "family":"Connell",
                  "given":[
                     "Alistair",
                     "Alex"
                  ]
               }
            ]
         },
         "request":{
            "url":"Practitioner/19191919-1919-4919-9919-191919191919",
            "method":"PUT"
         }
      },
      {
         "resource":{
            "patient":{
               "reference":"Patient/03030303-0303-4303-8303-030303030303"
            },
            "id":"1a1a1a1a-1a1a-4a1a-9a1a-1a1a1a1a1a1a",
            "resourceType":"EpisodeOfCare",
            "identifier":[
               {
                  "period":{
                     "start":"2018-07-25T14:01:56+07:00",
                     "end":"2018-07-25T14:01:56+07:00"
                  },
                  "value":"5609582645793883000",
                  "type":{
                     "coding":[
                        {
                           "code":"visitid"
                        }
                     ]
                  }
               }
            ],
            "status":"finished",
            "diagnosis":[
               {
                  "condition":{
                     "reference":"Condition/05050505-0505-4505-8505-050505050505"
                  },
                  "role":{
                     "coding":[
                        {
                           "code":"Working"
                        }
                     ]
                  }
               },
               {
                  "condition":{
                     "reference":"Condition/07070707-0707-4707-8707-070707070707"
                  },
                  "role":{
                     "coding":[
                        {
                           "code":"Working2"
                        }
                     ]
                  }
               }
            ]
         },
         "request":{
            "method":"PUT",
            "url":"EpisodeOfCare/1a1a1a1a-1a1a-4a1a-9a1a-1a1a1a1a1a1a"
         }
      },
      {
         "resource":{
            "resourceType":"Encounter",
            "status":"finished",
            "subject":{
               "reference":"Patient/03030303-0303-4303-8303-030303030303"
            },
            "class":{
               "display":"ambulatory",
               "system":"http://terminology.hl7.org/CodeSystem/v3-ActCode",
               "code":"AMB",
               "version":"v1"
            },
            "id":"1b1b1b1b-1b1b-4b1b-9b1b-1b1b1b1b1b1b",
            "diagnosis":[
               {
                  "condition":{
                     "reference":"Condition/05050505-0505-4505-8505-050505050505"
                  }
               },
               {
                  "condition":{
                     "reference":"Condition/07070707-0707-4707-8707-070707070707"
                  }
               }
            ],
            "episodeOfCare":[
               {
                  "reference":"EpisodeOfCare/1a1a1a1a-1a1a-4a1a-9a1a-1a1a1a1a1a1a"
               }
            ],
            "period":{
               "start":"2019-03-09T13:01:56+03:00",
               "end":"2011-03-09T13:01:56+03:00"
            },
            "identifier":[
               {
                  "period":{
                     "end":"2018-07-25T14:01:56+07:00",
                     "start":"2018-07-25T14:01:56+07:00"
                  },
                  "value":"5609582645793881888",
                  "type":{
                     "text":"visit number",
                     "coding":[
                        {
                           "code":"visitid",
                           "system":"http://terminology.hl7.org/CodeSystem/v2-0203"
                        }
                     ]
                  }
               },
               {
                  "value":"5609582645793882000",
                  "type":{
                     "coding":[
                        {
                           "code":"visitid"
                        }
                     ]
                  },
                  "period":{
                     "start":"2018-07-25T14:01:56+07:00",
                     "end":"2018-07-25T14:01:56+07:00"
                  }
               }
            ],
            "type":[
               {
                  "coding":[
                     {
                        "code":"28b"
                     }
                  ]
               }
            ],
            "hospitalization":{
               "dischargeDisposition":{
                  "coding":[
                     {
                        "code":"Ready to go"
                     }
                  ]
               },
               "destination":{
                  "reference":"Location/18181818-1818-4818-9818-181818181818"
               },
               "dietPreference":[
                  {
                     "coding":[
                        {
                           "code":"Vegi"
                        }
                     ]
                  }
               ],
               "preAdmissionIdentifier":{
                  "value":"PV1-5"
               },
               "reAdmission":{
                  "coding":[
                     {
                        "code":"PV1.13"
                     }
                  ]
               },
               "admitSource":{
                  "coding":[
                     {
                        "code":"PV1.14"
                     }
                  ]
               }
            },
            "location":[
               {
                  "status":"active",
                  "location":{
                     "reference":"Location/0b0b0b0b-0b0b-4b0b-8b0b-0b0b0b0b0b0b"
                  }
               },
               {
                  "status":"active",
                  "location":{
                     "reference":"Location/0c0c0c0c-0c0c-4c0c-8c0c-0c0c0c0c0c0c"
                  }
               },
               {
                  "location":{
                     "reference":"Location/0d0d0d0d-0d0d-4d0d-8d0d-0d0d0d0d0d0d"
                  },
                  "status":"active"
               },
               {
                  "location":{
                     "reference":"Location/08080808-0808-4808-8808-080808080808"
                  },
                  "status":"active"
               },
               {
                  "location":{
                     "reference":"Location/09090909-0909-4909-8909-090909090909"
                  },
                  "status":"active"
               },
               {
                  "status":"active",
                  "location":{
                     "reference":"Location/0a0a0a0a-0a0a-4a0a-8a0a-0a0a0a0a0a0a"
                  }
               },
               {
                  "location":{
                     "reference":"Location/11111111-1111-4111-9111-111111111111"
                  },
                  "status":"completed"
               },
               {
                  "location":{
                     "reference":"Location/12121212-1212-4212-9212-121212121212"
                  },
                  "status":"completed"
               },
               {
                  "status":"completed",
                  "location":{
                     "reference":"Location/13131313-1313-4313-9313-131313131313"
                  }
               },
               {
                  "location":{
                     "reference":"Location/0e0e0e0e-0e0e-4e0e-8e0e-0e0e0e0e0e0e"
                  },
                  "status":"completed"
               },
               {
                  "location":{
                     "reference":"Location/0f0f0f0f-0f0f-4f0f-8f0f-0f0f0f0f0f0f"
                  },
                  "status":"completed"
               },
               {
                  "status":"completed",
                  "location":{
                     "reference":"Location/10101010-1010-4010-9010-101010101010"
                  }
               }
            ],
            "participant":[
               {
                  "individual":{
                     "reference":"Practitioner/14141414-1414-4414-9414-141414141414"
                  },
                  "type":[
                     {
                        "coding":[
                           {
                              "display":"attender",
                              "code":"ATND",
                              "system":"http://terminology.hl7.org/CodeSystem/v3-ParticipationType"
                           }
                        ]
                     }
                  ]
               },
               {
                  "individual":{
                     "reference":"Practitioner/15151515-1515-4515-9515-151515151515"
                  },
                  "type":[
                     {
                        "coding":[
                           {
                              "display":"referrer",
                              "code":"REF",
                              "system":"http://terminology.hl7.org/CodeSystem/v3-ParticipationType"
                           }
                        ]
                     }
                  ]
               },
               {
                  "type":[
                     {
                        "coding":[
                           {
                              "system":"http://terminology.hl7.org/CodeSystem/v3-ParticipationType",
                              "display":"consultant",
                              "code":"CON"
                           }
                        ]
                     }
                  ],
                  "individual":{
                     "reference":"Practitioner/16161616-1616-4616-9616-161616161616"
                  }
               },
               {
                  "type":[
                     {
                        "coding":[
                           {
                              "display":"admitter",
                              "code":"ADM",
                              "system":"http://terminology.hl7.org/CodeSystem/v3-ParticipationType"
                           }
                        ]
                     }
                  ],
                  "individual":{
                     "reference":"Practitioner/17171717-1717-4717-9717-171717171717"
                  }
               },
               {
                  "individual":{
                     "reference":"Practitioner/19191919-1919-4919-9919-191919191919"
                  },
                  "type":[
                     {
                        "coding":[
                           {
                              "code":"PART",
                              "system":"http://terminology.hl7.org/CodeSystem/v3-ParticipationType",
                              "display":"Participation"
                           }
                        ]
                     }
                  ]
               }
            ]
         },
         "request":{
            "method":"PUT",
            "url":"Encounter/1b1b1b1b-1b1b-4b1b-9b1b-1b1b1b1b1b1b"
         }
      }
   ],
   "resourceType":"Bundle"
}
