{
   "identifier":{
      "value":"8971"
   },
   "resourceType":"Bundle",
   "type":"transaction",
   "entry":[
      {
         "resource":{
            "identifier":[
               {
                  "value":"RAL"
               }
            ],
            "address":[
               {
                  "country":"44"
               }
            ],
            "id":"01010101-0101-4101-8101-010101010101",
            "resourceType":"Organization"
         },
         "request":{
            "method":"PUT",
            "url":"Organization/01010101-0101-4101-8101-010101010101"
         }
      },
      {
         "request":{
            "url":"Organization/02020202-0202-4202-8202-020202020202",
            "method":"PUT"
         },
         "resource":{
            "resourceType":"Organization",
            "identifier":[
               {
                  "value":"RAL"
               }
            ],
            "id":"02020202-0202-4202-8202-020202020202"
         }
      },
      {
         "resource":{
            "event":{
               "code":"R01",
               "system":"http://terminology.hl7.org/CodeSystem/v2-0003"
            },
            "timestamp":"2014-08-11T19:38:05.118811Z",
            "id":"03030303-0303-4303-8303-030303030303",
            "receiver":{
               "reference":"Organization/02020202-0202-4202-8202-020202020202"
            },
            "resourceType":"MessageHeader",
            "meta":{
               "tag":[
                  {
                     "system":"http://terminology.hl7.org/CodeSystem/v2-0103",
                     "code":"T"
                  },
                  {
                     "system":"http://terminology.hl7.org/CodeSystem/v2-0207"
                  }
               ]
            },
            "sender":{
               "reference":"Organization/01010101-0101-4101-8101-010101010101"
            },
            "destination":[
               {
                  "endpoint":"RAL",
                  "name":"STREAMS"
               }
            ],
            "source":{
               "name":"CERNER",
               "endpoint":"unknown"
            }
         },
         "request":{
            "method":"PUT",
            "url":"MessageHeader/03030303-0303-4303-8303-030303030303"
         }
      },
      {
         "request":{
            "method":"PUT",
            "url":"Device/04040404-0404-4404-8404-040404040404"
         },
         "resource":{
            "id":"04040404-0404-4404-8404-040404040404",
            "resourceType":"Device",
            "identifier":[
               {
                  "value":"CERNER"
               }
            ]
         }
      },
      {
         "resource":{
            "agent":[
               {
                  "whoReference":{
                     "reference":"Device/04040404-0404-4404-8404-040404040404"
                  }
               }
            ],
            "recorded":"2014-08-11T19:38:05.118811Z",
            "target":[
               {
                  "reference":"MessageHeader/03030303-0303-4303-8303-030303030303"
               }
            ],
            "id":"05050505-0505-4505-8505-050505050505",
            "resourceType":"Provenance"
         },
         "request":{
            "url":"Provenance/05050505-0505-4505-8505-050505050505",
            "method":"PUT"
         }
      },
      {
         "request":{
            "url":"Patient/07070707-0707-4707-8707-070707070707",
            "method":"PUT"
         },
         "resource":{
            "address":[
               {
                  "city":"Ilford",
                  "postalCode":"JN83 4OE",
                  "country":"GBR",
                  "line":[
                     "140 Heater Lane"
                  ]
               }
            ],
            "resourceType":"Patient",
            "birthDate":"1977-04-20",
            "gender":"female",
            "id":"07070707-0707-4707-8707-070707070707",
            "active":true,
            "identifier":[
               {
                  "type":{
                     "coding":[
                        {
                           "code":"MRN"
                        }
                     ]
                  },
                  "value":"1325463202"
               },
               {
                  "value":"1325463202",
                  "type":{
                     "coding":[
                        {
                           "code":"MRN"
                        }
                     ]
                  }
               },
               {
                  "value":"3789692603",
                  "type":{
                     "coding":[
                        {
                           "code":"NHSNMBR"
                        }
                     ]
                  }
               },
               {
                  "type":{
                     "coding":[
                        {
                           "code":"SB"
                        }
                     ]
                  }
               },
               {
                  "type":{
                     "coding":[
                        {
                           "code":"DL"
                        }
                     ]
                  }
               }
            ],
            "name":[
               {
                  "prefix":[
                     "Mrs"
                  ],
                  "use":"official",
                  "family":"Bradley",
                  "given":[
                     "Angela",
                     "Bridget"
                  ]
               }
            ],
            "contact":[
               {
                  "name":{
                     "given":[
                        "Lady",
                        "T"
                     ],
                     "family":"Bond"
                  },
                  "address":{
                     "postalCode":"27511",
                     "line":[
                        "007 Soho Lane"
                     ],
                     "city":"Cary",
                     "state":"NC"
                  },
                  "telecom":[
                     {
                        "value":"(919)007-0007",
                        "use":"home"
                     }
                  ]
               }
            ],
            "telecom":[
               {
                  "use":"home",
                  "value":"020 2295 8931"
               }
            ]
         }
      },
      {
         "resource":{
            "telecom":[
               {
                  "use":"home",
                  "value":"(919)007-0007"
               }
            ],
            "identifier":[
               {
                  "type":{
                     "coding":[
                        {
                           "code":"SB"
                        }
                     ]
                  }
               }
            ],
            "patient":{
               "reference":"Patient/07070707-0707-4707-8707-070707070707"
            },
            "id":"08080808-0808-4808-8808-080808080808",
            "resourceType":"RelatedPerson",
            "name":[
               {
                  "family":"Bond",
                  "given":[
                     "Lady",
                     "T"
                  ]
               }
            ],
            "relationship":{
               "coding":[
                  {
                     "system":"http://terminology.hl7.org/CodeSystem/v3-RoleCode",
                     "code":"SPS",
                     "version":"v1",
                     "display":"spouse"
                  }
               ]
            },
            "address":[
               {
                  "postalCode":"27511",
                  "line":[
                     "007 Soho Lane"
                  ],
                  "city":"Cary",
                  "state":"NC"
               }
            ]
         },
         "request":{
            "url":"RelatedPerson/08080808-0808-4808-8808-080808080808",
            "method":"PUT"
         }
      },
      {
         "resource":{
            "code":{
               "coding":[
                  {
                     "display":"APELV",
                     "code":"APELV"
                  }
               ]
            },
            "valueString":"No fracture or dislocation is present. The joint spaces are normal.  Soft tissue is normal.",
            "status":"final",
            "effectiveDateTime":"2014-08-11T19:38:05+08:00",
            "identifier":[
               {
                  "type":{
                     "coding":[
                        {
                           "code":"FILL",
                           "system":"http://terminology.hl7.org/CodeSystem/v2-0203"
                        }
                     ]
                  }
               }
            ],
            "subject":{
               "reference":"Patient/07070707-0707-4707-8707-070707070707"
            },
            "id":"09090909-0909-4909-8909-090909090909",
            "resourceType":"Observation"
         },
         "request":{
            "method":"PUT",
            "url":"Observation/09090909-0909-4909-8909-090909090909"
         }
      },
      {
         "request":{
            "method":"PUT",
            "url":"Specimen/0a0a0a0a-0a0a-4a0a-8a0a-0a0a0a0a0a0a"
         },
         "resource":{
            "id":"0a0a0a0a-0a0a-4a0a-8a0a-0a0a0a0a0a0a",
            "resourceType":"Specimen",
            "receivedTime":"2014-08-11T19:38:05+08:00",
            "subject":{
               "reference":"Patient/07070707-0707-4707-8707-070707070707"
            }
         }
      },
      {
         "request":{
            "method":"PUT",
            "url":"DiagnosticReport/0b0b0b0b-0b0b-4b0b-8b0b-0b0b0b0b0b0b"
         },
         "resource":{
            "effectiveDateTime":"2014-08-11T19:38:05+08:00",
            "identifier":[
               {
                  "type":{
                     "coding":[
                        {
                           "system":"http://terminology.hl7.org/CodeSystem/v2-0203",
                           "code":"PLAC"
                        }
                     ]
                  },
                  "value":"1909829541"
               },
               {
                  "value":"3496264291",
                  "type":{
                     "coding":[
                        {
                           "system":"http://terminology.hl7.org/CodeSystem/v2-0203",
                           "code":"FILL"
                        }
                     ]
                  }
               },
               {
                  "value":"1909829541",
                  "type":{
                     "coding":[
                        {
                           "code":"PLAC",
                           "system":"http://terminology.hl7.org/CodeSystem/v2-0203"
                        }
                     ]
                  }
               },
               {
                  "value":"3496264291",
                  "type":{
                     "coding":[
                        {
                           "system":"http://terminology.hl7.org/CodeSystem/v2-0203",
                           "code":"FILL"
                        }
                     ]
                  }
               }
            ],
            "resourceType":"DiagnosticReport",
            "subject":{
               "reference":"Patient/07070707-0707-4707-8707-070707070707"
            },
            "issued":"2014-08-11T19:38:05.118811Z",
            "specimen":[
               {
                  "reference":"Specimen/0a0a0a0a-0a0a-4a0a-8a0a-0a0a0a0a0a0a"
               }
            ],
            "status":"final",
            "id":"0b0b0b0b-0b0b-4b0b-8b0b-0b0b0b0b0b0b",
            "code":{
               "coding":[
                  {
                     "code":"AP Pelvis",
                     "display":"AP Pelvis"
                  }
               ]
            }
         }
      }
   ]
}
