{
   "type":"transaction",
   "entry":[
      {
         "resource":{
            "resourceType":"Organization",
            "identifier":[
               {
                  "value":"Ntierprise Clinic"
               }
            ],
            "id":"01010101-0101-4101-8101-010101010101"
         },
         "request":{
            "url":"Organization/01010101-0101-4101-8101-010101010101",
            "method":"PUT"
         }
      },
      {
         "resource":{
            "resourceType":"Organization",
            "identifier":[
               {
                  "value":"Healthmatics Clinic"
               }
            ],
            "id":"02020202-0202-4202-8202-020202020202"
         },
         "request":{
            "url":"Organization/02020202-0202-4202-8202-020202020202",
            "method":"PUT"
         }
      },
      {
         "request":{
            "url":"MessageHeader/03030303-0303-4303-8303-030303030303",
            "method":"PUT"
         },
         "resource":{
            "id":"03030303-0303-4303-8303-030303030303",
            "source":{
               "endpoint":"unknown",
               "name":"Ntierprise"
            },
            "event":{
               "system":"http://terminology.hl7.org/CodeSystem/v2-0003",
               "code":"A08"
            },
            "destination":[
               {
                  "endpoint":"Healthmatics Clinic",
                  "name":"Healthmatics EHR"
               }
            ],
            "sender":{
               "reference":"Organization/01010101-0101-4101-8101-010101010101"
            },
            "meta":{
               "tag":[
                  {
                     "code":"P",
                     "system":"http://terminology.hl7.org/CodeSystem/v2-0103"
                  },
                  {
                     "system":"http://terminology.hl7.org/CodeSystem/v2-0207"
                  }
               ]
            },
            "receiver":{
               "reference":"Organization/02020202-0202-4202-8202-020202020202"
            },
            "resourceType":"MessageHeader",
            "timestamp":"2019-04-23T11:39:10.234423Z"
         }
      },
      {
         "resource":{
            "id":"04040404-0404-4404-8404-040404040404",
            "resourceType":"Device",
            "identifier":[
               {
                  "value":"Ntierprise"
               }
            ]
         },
         "request":{
            "method":"PUT",
            "url":"Device/04040404-0404-4404-8404-040404040404"
         }
      },
      {
         "request":{
            "method":"PUT",
            "url":"Provenance/05050505-0505-4505-8505-050505050505"
         },
         "resource":{
            "resourceType":"Provenance",
            "agent":[
               {
                  "whoReference":{
                     "reference":"Device/04040404-0404-4404-8404-040404040404"
                  }
               }
            ],
            "recorded":"2019-04-23T11:39:10.234423Z",
            "target":[
               {
                  "reference":"MessageHeader/03030303-0303-4303-8303-030303030303"
               }
            ],
            "id":"05050505-0505-4505-8505-050505050505"
         }
      },
      {
         "request":{
            "url":"Patient/07070707-0707-4707-8707-070707070707",
            "method":"PUT"
         },
         "resource":{
            "address":[
               {
                  "city":"Raleigh",
                  "state":"NC",
                  "postalCode":"27677",
                  "line":[
                     "8388 Secret Agent Way"
                  ]
               }
            ],
            "id":"07070707-0707-4707-8707-070707070707",
            "name":[
               {
                  "family":"Bond",
                  "given":[
                     "Tiny"
                  ]
               }
            ],
            "active":true,
            "birthDate":"1999-07-23",
            "identifier":[
               {
                  "value":"151"
               },
               {
                  "type":{
                     "coding":[
                        {
                           "code":"SB"
                        }
                     ]
                  }
               },
               {
                  "type":{
                     "coding":[
                        {
                           "code":"DL"
                        }
                     ]
                  }
               }
            ],
            "deceasedBoolean":false,
            "gender":"male",
            "resourceType":"Patient",
            "contact":[
               {
                  "telecom":[
                     {
                        "use":"home",
                        "value":"(919)007-0007"
                     }
                  ],
                  "name":{
                     "family":"Bond",
                     "given":[
                        "Lady",
                        "T"
                     ]
                  },
                  "address":{
                     "city":"Cary",
                     "state":"NC",
                     "postalCode":"27511",
                     "line":[
                        "007 Soho Lane"
                     ]
                  }
               }
            ]
         }
      },
      {
         "resource":{
            "identifier":[
               {
                  "value":"151"
               }
            ],
            "subject":{
               "reference":"Patient/07070707-0707-4707-8707-070707070707"
            },
            "id":"08080808-0808-4808-8808-080808080808",
            "resourceType":"Account"
         },
         "request":{
            "url":"Account/08080808-0808-4808-8808-080808080808",
            "method":"PUT"
         }
      },
      {
         "resource":{
            "identifier":[
               {
                  "type":{
                     "coding":[
                        {
                           "code":"SB"
                        }
                     ]
                  }
               }
            ],
            "patient":{
               "reference":"Patient/07070707-0707-4707-8707-070707070707"
            },
            "id":"09090909-0909-4909-8909-090909090909",
            "resourceType":"RelatedPerson",
            "name":[
               {
                  "family":"Bond",
                  "given":[
                     "Lady",
                     "T"
                  ]
               }
            ],
            "relationship":{
               "coding":[
                  {
                     "version":"v1",
                     "display":"spouse",
                     "system":"http://terminology.hl7.org/CodeSystem/v3-RoleCode",
                     "code":"SPS"
                  }
               ]
            },
            "address":[
               {
                  "city":"Cary",
                  "state":"NC",
                  "postalCode":"27511",
                  "line":[
                     "007 Soho Lane"
                  ]
               }
            ],
            "telecom":[
               {
                  "value":"(919)007-0007",
                  "use":"home"
               }
            ]
         },
         "request":{
            "method":"PUT",
            "url":"RelatedPerson/09090909-0909-4909-8909-090909090909"
         }
      },
      {
         "request":{
            "method":"PUT",
            "url":"Practitioner/0a0a0a0a-0a0a-4a0a-8a0a-0a0a0a0a0a0a"
         },
         "resource":{
            "resourceType":"Practitioner",
            "identifier":[
               {
                  "value":"Manning"
               }
            ],
            "name":[
               {
                  "given":[
                     "Terry"
                  ],
                  "family":"Manning"
               }
            ],
            "id":"0a0a0a0a-0a0a-4a0a-8a0a-0a0a0a0a0a0a"
         }
      },
      {
         "resource":{
            "status":"in-progress",
            "subject":{
               "reference":"Patient/07070707-0707-4707-8707-070707070707"
            },
            "id":"0b0b0b0b-0b0b-4b0b-8b0b-0b0b0b0b0b0b",
            "resourceType":"Encounter",
            "class":{
               "code":"unknown",
               "version":"v1",
               "display":"",
               "system":"http://terminology.hl7.org/CodeSystem/v3-ActCode"
            },
            "participant":[
               {
                  "individual":{
                     "reference":"Practitioner/0a0a0a0a-0a0a-4a0a-8a0a-0a0a0a0a0a0a"
                  },
                  "type":[
                     {
                        "coding":[
                           {
                              "display":"attender",
                              "code":"ATND",
                              "system":"http://terminology.hl7.org/CodeSystem/v3-ParticipationType"
                           }
                        ]
                     }
                  ]
               }
            ],
            "identifier":[
               {
                  "type":{
                     "text":"visit number",
                     "coding":[
                        {
                           "code":"VN",
                           "system":"http://terminology.hl7.org/CodeSystem/v2-0203"
                        }
                     ]
                  }
               }
            ]
         },
         "request":{
            "method":"PUT",
            "url":"Encounter/0b0b0b0b-0b0b-4b0b-8b0b-0b0b0b0b0b0b"
         }
      }
   ],
   "identifier":{
      "value":"8899-39"
   },
   "resourceType":"Bundle"
}
