{
   "identifier":{
      "value":"1"
   },
   "resourceType":"Bundle",
   "type":"transaction",
   "entry":[
      {
         "resource":{
            "identifier":[
               {
                  "value":"SFAC"
               }
            ],
            "id":"01010101-0101-4101-8101-010101010101",
            "resourceType":"Organization",
            "address":[
               {
                  "country":"44"
               }
            ]
         },
         "request":{
            "url":"Organization/01010101-0101-4101-8101-010101010101",
            "method":"PUT"
         }
      },
      {
         "resource":{
            "resourceType":"Organization",
            "identifier":[
               {
                  "value":"RFAC"
               }
            ],
            "id":"02020202-0202-4202-8202-020202020202"
         },
         "request":{
            "url":"Organization/02020202-0202-4202-8202-020202020202",
            "method":"PUT"
         }
      },
      {
         "request":{
            "method":"PUT",
            "url":"MessageHeader/03030303-0303-4303-8303-030303030303"
         },
         "resource":{
            "source":{
               "endpoint":"unknown",
               "name":"SIMHOSP"
            },
            "event":{
               "system":"http://terminology.hl7.org/CodeSystem/v2-0003",
               "code":"A31"
            },
            "destination":[
               {
                  "name":"RAPP",
                  "endpoint":"RFAC"
               }
            ],
            "meta":{
               "tag":[
                  {
                     "code":"T",
                     "system":"http://terminology.hl7.org/CodeSystem/v2-0103"
                  },
                  {
                     "system":"http://terminology.hl7.org/CodeSystem/v2-0207"
                  }
               ]
            },
            "sender":{
               "reference":"Organization/01010101-0101-4101-8101-010101010101"
            },
            "resourceType":"MessageHeader",
            "timestamp":"2020-06-09T23:03:54.9669Z",
            "receiver":{
               "reference":"Organization/02020202-0202-4202-8202-020202020202"
            },
            "id":"03030303-0303-4303-8303-030303030303"
         }
      },
      {
         "resource":{
            "resourceType":"Device",
            "identifier":[
               {
                  "value":"SIMHOSP"
               }
            ],
            "id":"04040404-0404-4404-8404-040404040404"
         },
         "request":{
            "method":"PUT",
            "url":"Device/04040404-0404-4404-8404-040404040404"
         }
      },
      {
         "resource":{
            "recorded":"2020-06-09T23:03:54.9669Z",
            "target":[
               {
                  "reference":"MessageHeader/03030303-0303-4303-8303-030303030303"
               }
            ],
            "id":"05050505-0505-4505-8505-050505050505",
            "resourceType":"Provenance",
            "agent":[
               {
                  "whoReference":{
                     "reference":"Device/04040404-0404-4404-8404-040404040404"
                  }
               }
            ]
         },
         "request":{
            "url":"Provenance/05050505-0505-4505-8505-050505050505",
            "method":"PUT"
         }
      },
      {
         "request":{
            "url":"Patient/07070707-0707-4707-8707-070707070707",
            "method":"PUT"
         },
         "resource":{
            "identifier":[
               {
                  "value":"1117297925",
                  "type":{
                     "coding":[
                        {
                           "code":"MRN"
                        }
                     ]
                  }
               },
               {
                  "value":"1117297925",
                  "type":{
                     "coding":[
                        {
                           "code":"MRN"
                        }
                     ]
                  }
               },
               {
                  "type":{
                     "coding":[
                        {
                           "code":"NHSNMBR"
                        }
                     ]
                  },
                  "value":"6708325292"
               },
               {
                  "type":{
                     "coding":[
                        {
                           "code":"SB"
                        }
                     ]
                  }
               },
               {
                  "type":{
                     "coding":[
                        {
                           "code":"DL"
                        }
                     ]
                  }
               }
            ],
            "name":[
               {
                  "given":[
                     "Stuart"
                  ],
                  "prefix":[
                     "Mr"
                  ],
                  "use":"anonymous",
                  "family":"Horton"
               }
            ],
            "id":"07070707-0707-4707-8707-070707070707",
            "active":true,
            "telecom":[
               {
                  "use":"home",
                  "value":"077 4194 7168"
               }
            ],
            "resourceType":"Patient",
            "gender":"male",
            "address":[
               {
                  "city":"Wembley",
                  "postalCode":"FB20 5KT",
                  "country":"GBR",
                  "line":[
                     "1 Waistband Lane"
                  ]
               }
            ],
            "birthDate":"1978-02-05"
         }
      },
      {
         "resource":{
            "identifier":[
               {
                  "type":{
                     "coding":[
                        {
                           "code":"ORGDR"
                        }
                     ]
                  },
                  "value":"C003"
               }
            ],
            "name":[
               {
                  "given":[
                     "Kevin"
                  ],
                  "prefix":[
                     "Dr"
                  ],
                  "use":"anonymous",
                  "family":"Cuddy"
               }
            ],
            "id":"08080808-0808-4808-8808-080808080808",
            "resourceType":"Practitioner"
         },
         "request":{
            "url":"Practitioner/08080808-0808-4808-8808-080808080808",
            "method":"PUT"
         }
      },
      {
         "request":{
            "method":"PUT",
            "url":"Condition/09090909-0909-4909-8909-090909090909"
         },
         "resource":{
            "subject":{
               "reference":"Patient/07070707-0707-4707-8707-070707070707"
            },
            "id":"09090909-0909-4909-8909-090909090909",
            "resourceType":"Condition",
            "code":{
               "text":"Acute lymphangitis of thigh",
               "coding":[
                  {
                     "display":"Acute lymphangitis of thigh",
                     "system":"SNM3",
                     "code":"3059002"
                  }
               ]
            },
            "onsetDateTime":"2020-05-14T23:03:55+05:00",
            "asserter":{
               "reference":"Practitioner/08080808-0808-4808-8808-080808080808"
            }
         }
      },
      {
         "request":{
            "url":"EpisodeOfCare/0a0a0a0a-0a0a-4a0a-8a0a-0a0a0a0a0a0a",
            "method":"PUT"
         },
         "resource":{
            "patient":{
               "reference":"Patient/07070707-0707-4707-8707-070707070707"
            },
            "id":"0a0a0a0a-0a0a-4a0a-8a0a-0a0a0a0a0a0a",
            "resourceType":"EpisodeOfCare",
            "status":"finished",
            "diagnosis":[
               {
                  "condition":{
                     "reference":"Condition/09090909-0909-4909-8909-090909090909"
                  },
                  "role":{
                     "coding":[
                        {
                           "code":"W"
                        }
                     ]
                  }
               }
            ]
         }
      },
      {
         "request":{
            "method":"PUT",
            "url":"Encounter/0b0b0b0b-0b0b-4b0b-8b0b-0b0b0b0b0b0b"
         },
         "resource":{
            "diagnosis":[
               {
                  "condition":{
                     "reference":"Condition/09090909-0909-4909-8909-090909090909"
                  }
               }
            ],
            "episodeOfCare":[
               {
                  "reference":"EpisodeOfCare/0a0a0a0a-0a0a-4a0a-8a0a-0a0a0a0a0a0a"
               }
            ],
            "subject":{
               "reference":"Patient/07070707-0707-4707-8707-070707070707"
            },
            "id":"0b0b0b0b-0b0b-4b0b-8b0b-0b0b0b0b0b0b",
            "resourceType":"Encounter",
            "class":{
               "code":"unknown",
               "version":"v1",
               "display":"",
               "system":"http://terminology.hl7.org/CodeSystem/v3-ActCode"
            },
            "identifier":[
               {
                  "type":{
                     "text":"visit number",
                     "coding":[
                        {
                           "system":"http://terminology.hl7.org/CodeSystem/v2-0203",
                           "code":"VN"
                        }
                     ]
                  }
               }
            ],
            "status":"in-progress"
         }
      }
   ]
}
