{
  "entry": [
    {
      "request": {
        "method": "PUT",
        "url": "Bundle/6f9d682f767770943a158805c4058e71"
      },
      "resource": {
        "entry": [
          {
            "resource": {
              "attester": [
                {
                  "mode": "professional",
                  "party": {
                    "reference": "PractitionerRole/b00f3e5a01e26589922511db17b26be6"
                  }
                },
                {
                  "mode": "legal",
                  "party": {
                    "reference": "PractitionerRole/b00f3e5a01e26589922511db17b26be6"
                  }
                }
              ],
              "author": [
                {
                  "reference": "PractitionerRole/b00f3e5a01e26589922511db17b26be6"
                }
              ],
              "confidentiality": "N",
              "custodian": {
                "reference": "Organization/1e6097251479475cfa73ec0ea0b78d4f"
              },
              "date": "2008-08-15",
              "id": "77401de8dbcce1374b0cba96842843b3",
              "identifier": {
                "system": "urn:oid:2.16.840.1.113883.19.5.99999.1",
                "value": "TT988"
              },
              "meta": {
                "source": "Xyz Organization"
              },
              "resourceType": "Composition",
              "section": [
                {
                  "code": {
                    "coding": [
                      {
                        "code": "10157-6",
                        "system": "urn:oid:2.16.840.1.113883.6.1"
                      }
                    ]
                  },
                  "entry": [
                    {
                      "reference": "FamilyMemberHistory/47da0271f1ff9ba58b338e5dbfab7ff0"
                    }
                  ],
                  "title": "FAMILY HISTORY"
                },
                {
                  "code": {
                    "coding": [
                      {
                        "code": "8716-3",
                        "display": "VITAL SIGNS",
                        "system": "urn:oid:2.16.840.1.113883.6.1"
                      }
                    ]
                  },
                  "entry": [
                    {
                      "reference": "Observation/a2347a7337f90320df5e4706131dc1aa"
                    },
                    {
                      "reference": "Observation/0f959e84448090abb9c5d8ba609b2dcd"
                    },
                    {
                      "reference": "Observation/64097ab545d310bb908e517c4e04b47f"
                    },
                    {
                      "reference": "Observation/85f8564bbcc38ae683fd687c170fa8e7"
                    },
                    {
                      "reference": "Observation/bbc8c9ab88bce728ce367163525b9f41"
                    },
                    {
                      "reference": "Observation/45adab11f421af1b06770e6ae45bb95f"
                    },
                    {
                      "reference": "Observation/1f4cb8ca360336830e0156662f1598e8"
                    },
                    {
                      "reference": "Observation/02c559cd6c40d61fac8e431a38791b9c"
                    }
                  ],
                  "title": "VITAL SIGNS"
                },
                {
                  "code": {
                    "coding": [
                      {
                        "code": "29762-2",
                        "display": "Social History",
                        "system": "urn:oid:2.16.840.1.113883.6.1"
                      }
                    ]
                  },
                  "entry": [
                    {
                      "reference": "Observation/c11fcaa3463d67df0720a4fb45aa1d16"
                    },
                    {
                      "reference": "Observation/1535036f69b6b5d6a2c0e0eaa5ba17d0"
                    },
                    {
                      "reference": "Observation/7300a74905b192f1c94e9f8c33eb0316"
                    }
                  ],
                  "title": "SOCIAL HISTORY"
                },
                {
                  "code": {
                    "coding": [
                      {
                        "code": "46240-8",
                        "display": "History of encounters",
                        "system": "urn:oid:2.16.840.1.113883.6.1"
                      }
                    ]
                  },
                  "entry": [
                    {
                      "reference": "Encounter/edd1b0996ce9d920c7f747d242b65839"
                    }
                  ],
                  "title": "ENCOUNTERS"
                },
                {
                  "code": {
                    "coding": [
                      {
                        "code": "47420-5",
                        "display": "Functional Status",
                        "system": "urn:oid:2.16.840.1.113883.6.1"
                      }
                    ]
                  },
                  "entry": [
                    {
                      "reference": "Observation/0d562c2ef3daafe2c2431ad077fc5504"
                    },
                    {
                      "reference": "Observation/30d234a5ab4ee284c3d23b40c200cc65"
                    }
                  ],
                  "title": "FUNCTIONAL STATUS"
                },
                {
                  "code": {
                    "coding": [
                      {
                        "code": "11450-4",
                        "display": "PROBLEM LIST",
                        "system": "urn:oid:2.16.840.1.113883.6.1"
                      }
                    ]
                  },
                  "entry": [
                    {
                      "reference": "Condition/25b79e26d06497c6f4c051d2fc0ce867"
                    },
                    {
                      "reference": "Condition/402bbfdfca8d7fbdb5d0c21eeae97fec"
                    },
                    {
                      "reference": "Condition/c3b329670d0e4adb56ca8887c2f8f783"
                    },
                    {
                      "reference": "Condition/a00564402284b37022721646022cc6b4"
                    }
                  ],
                  "title": "PROBLEMS"
                },
                {
                  "code": {
                    "coding": [
                      {
                        "code": "47519-4",
                        "display": "HISTORY OF PROCEDURES",
                        "system": "urn:oid:2.16.840.1.113883.6.1"
                      }
                    ]
                  },
                  "entry": [
                    {
                      "reference": "Procedure/0cdaadf399bcb13d0943e4b9189088d5"
                    }
                  ],
                  "title": "PROCEDURES"
                },
                {
                  "code": {
                    "coding": [
                      {
                        "code": "30954-2",
                        "display": "RESULTS",
                        "system": "urn:oid:2.16.840.1.113883.6.1"
                      }
                    ]
                  },
                  "entry": [
                    {
                      "reference": "DiagnosticReport/659c768b95b91d9898a9237dda3d6d5e"
                    },
                    {
                      "reference": "DiagnosticReport/3f3bb23bb2e5f5fffdd6f2c0ff426220"
                    }
                  ],
                  "title": "RESULTS"
                },
                {
                  "code": {
                    "coding": [
                      {
                        "code": "46264-8",
                        "system": "urn:oid:2.16.840.1.113883.6.1"
                      }
                    ]
                  },
                  "entry": [
                    {
                      "reference": "Device/e1a2792d2aeccedea1bc5d9e9c3650be"
                    },
                    {
                      "reference": "Procedure/5e755991db93ad0d8adad85129ca6c62"
                    },
                    {
                      "reference": "Device/bbc9f446c8f2a1384235fd1691322910"
                    },
                    {
                      "reference": "Device/8420e1eff2a3c0bd2cbcd43b4b2faa7f"
                    }
                  ],
                  "title": "MEDICAL EQUIPMENT"
                },
                {
                  "code": {
                    "coding": [
                      {
                        "code": "10160-0",
                        "display": "HISTORY OF MEDICATION USE",
                        "system": "urn:oid:2.16.840.1.113883.6.1"
                      }
                    ]
                  },
                  "entry": [
                    {
                      "reference": "MedicationStatement/8c800b2d33bf68db9a1530b67b4121ea"
                    },
                    {
                      "reference": "MedicationStatement/b4fd5a1ff47987280340debe3c7008db"
                    }
                  ],
                  "title": "MEDICATIONS"
                },
                {
                  "code": {
                    "coding": [
                      {
                        "code": "11369-6",
                        "display": "History of immunizations",
                        "system": "urn:oid:2.16.840.1.113883.6.1"
                      }
                    ]
                  },
                  "entry": [
                    {
                      "reference": "Immunization/bd357ac1a42dff3f5718d834521f13c3"
                    },
                    {
                      "reference": "Immunization/bdbe470e02be0e0e452c8154591708c7"
                    },
                    {
                      "reference": "Immunization/a8913ac33d4d256309fc821e669756ae"
                    },
                    {
                      "reference": "Immunization/e9cd09313c230545976755244201fbc3"
                    },
                    {
                      "reference": "Immunization/3bed6938bf0b5fc5d1b410e04106d235"
                    }
                  ],
                  "title": "IMMUNIZATIONS"
                },
                {
                  "code": {
                    "coding": [
                      {
                        "code": "48765-2",
                        "system": "urn:oid:2.16.840.1.113883.6.1"
                      }
                    ]
                  },
                  "entry": [
                    {
                      "reference": "AllergyIntolerance/3f91f0965fd0677dccd16a3db3fc8261"
                    },
                    {
                      "reference": "AllergyIntolerance/5983a5553929deb53a6aede9a3d27d90"
                    }
                  ],
                  "title": "ALLERGIES AND ADVERSE REACTIONS"
                }
              ],
              "status": "preliminary",
              "subject": {
                "reference": "Patient/3fc334e44df0e55221efc90bbd5381eb"
              },
              "title": "Patient Chart Summary",
              "type": {
                "coding": [
                  {
                    "code": "34133-9",
                    "display": "Summarization of Episode Note",
                    "system": "urn:oid:2.16.840.1.113883.6.1"
                  }
                ]
              }
            }
          },
          {
            "resource": {
              "address": {
                "city": "Portland",
                "country": "US",
                "line": [
                  "1004 Healthcare Drive"
                ],
                "postalCode": "99123",
                "state": "OR"
              },
              "id": "770428b7d14d18e2cea60c54e4586e1f",
              "meta": {
                "source": "Xyz Organization"
              },
              "name": "unknown",
              "resourceType": "Location"
            }
          },
          {
            "resource": {
              "id": "5ddb512b26a77a91943c0a73edc265a9",
              "identifier": [
                {
                  "system": "urn:oid:2.16.840.1.113883.4.6",
                  "value": "5555555555"
                }
              ],
              "meta": {
                "source": "Xyz Organization"
              },
              "name": [
                {
                  "family": "Primary",
                  "given": [
                    "Patricia"
                  ],
                  "use": "usual"
                }
              ],
              "resourceType": "Practitioner"
            }
          },
          {
            "resource": {
              "active": true,
              "id": "9eb867e38c4b0ab4baf8b62b9caab2f8",
              "meta": {
                "source": "Xyz Organization"
              },
              "name": "unknown",
              "resourceType": "Organization"
            }
          },
          {
            "resource": {
              "active": true,
              "address": [
                {
                  "city": "Portland",
                  "country": "US",
                  "line": [
                    "1004 Health Drive"
                  ],
                  "postalCode": "99123",
                  "state": "OR"
                }
              ],
              "id": "4b982706ac548d965f9c0c01acef09ef",
              "identifier": [
                {
                  "system": "urn:oid:1.2.16.840.1.113883.4.6",
                  "value": "219BX"
                }
              ],
              "meta": {
                "source": "Xyz Organization"
              },
              "name": "The DoctorsTogether Physician Group",
              "resourceType": "Organization",
              "telecom": [
                {
                  "system": "phone",
                  "value": "tel: +1(555)555-5000"
                }
              ]
            }
          },
          {
            "resource": {
              "active": true,
              "address": [
                {
                  "city": "Portland",
                  "country": "US",
                  "line": [
                    "1007 Health Drive"
                  ],
                  "postalCode": "99123",
                  "state": "OR"
                }
              ],
              "id": "e0fbfb9aef667fcec9ebba1a68c11bc5",
              "identifier": [
                {
                  "system": "urn:oid:2.16.840.1.113883.4.6",
                  "value": "219BX"
                }
              ],
              "meta": {
                "source": "Xyz Organization"
              },
              "name": "The DoctorsTogether Physician Group",
              "resourceType": "Organization",
              "telecom": [
                {
                  "system": "phone",
                  "value": "tel: +1(555)555-5000"
                }
              ]
            }
          },
          {
            "resource": {
              "active": true,
              "code": [
                {
                  "coding": [
                    {
                      "code": "207QA0505X",
                      "display": "Adult Medicine",
                      "system": "urn:oid:2.16.840.1.113883.6.101"
                    }
                  ]
                }
              ],
              "id": "09f286fdb40e9e67ea795e45b7e38562",
              "identifier": [
                {
                  "system": "urn:oid:2.16.840.1.113883.4.6",
                  "value": "5555555555"
                }
              ],
              "location": [
                {
                  "reference": "Location/770428b7d14d18e2cea60c54e4586e1f"
                }
              ],
              "meta": {
                "source": "Xyz Organization"
              },
              "organization": {
                "reference": "Organization/4b982706ac548d965f9c0c01acef09ef"
              },
              "practitioner": {
                "reference": "Practitioner/5ddb512b26a77a91943c0a73edc265a9"
              },
              "resourceType": "PractitionerRole",
              "telecom": [
                {
                  "system": "phone",
                  "value": "tel:+1(555)555-1004"
                }
              ]
            }
          },
          {
            "resource": {
              "address": [
                {
                  "city": "Beaverton",
                  "country": "US",
                  "line": [
                    "2222 Home Street"
                  ],
                  "postalCode": "97867",
                  "state": "OR",
                  "use": "home"
                }
              ],
              "birthDate": "1975-05-01",
              "communication": [
                {
                  "language": {
                    "coding": [
                      {
                        "code": "en"
                      }
                    ]
                  },
                  "preferred": true
                }
              ],
              "contact": [
                {
                  "address": {
                    "city": "Beaverton",
                    "country": "US",
                    "line": [
                      "2222 Home Street"
                    ],
                    "postalCode": "97867",
                    "state": "OR",
                    "use": "home"
                  },
                  "name": {
                    "family": "Betterhalf",
                    "given": [
                      "Boris"
                    ],
                    "use": "usual"
                  },
                  "relationship": [
                    {
                      "coding": [
                        {
                          "code": "POWATT",
                          "display": "Power of Attorney",
                          "system": "urn:oid:2.16.840.1.113883.1.11.19830"
                        }
                      ]
                    }
                  ],
                  "telecom": [
                    {
                      "system": "phone",
                      "value": "tel:+1(555)555-2008"
                    }
                  ]
                }
              ],
              "extension": [
                {
                  "extension": [
                    {
                      "url": "ombCategory",
                      "valueCoding": {
                        "code": "2106-3",
                        "display": "White",
                        "system": "urn:oid:2.16.840.1.113883.6.238"
                      }
                    },
                    {
                      "url": "text"
                    }
                  ],
                  "url": "http://hl7.org/fhir/us/core/StructureDefinition/us-core-race"
                },
                {
                  "extension": [
                    {
                      "url": "ombCategory",
                      "valueCoding": {
                        "code": "2186-5",
                        "display": "Not Hispanic or Latino",
                        "system": "urn:oid:2.16.840.1.113883.6.238"
                      }
                    },
                    {
                      "url": "text"
                    }
                  ],
                  "url": "http://hl7.org/fhir/us/core/StructureDefinition/us-core-ethnicity"
                },
                {
                  "extension": [
                    {
                      "url": "http://hl7.org/fhir/StructureDefinition/patient-religion",
                      "valueCodeableConcept": {
                        "coding": [
                          {
                            "code": "1013",
                            "display": "Christian (non-Catholic, non-specific)",
                            "system": "urn:oid:2.16.840.1.113883.5.1076"
                          }
                        ]
                      }
                    }
                  ],
                  "url": "http://hl7.org/fhir/StructureDefinition/patient-religion"
                },
                {
                  "extension": [
                    {
                      "url": "http://hl7.org/fhir/StructureDefinition/patient-birthPlace",
                      "valueAddress": {
                        "city": "Beaverton",
                        "country": "US",
                        "line": [
                          "4444 Home Street"
                        ],
                        "postalCode": "97867",
                        "state": "OR"
                      }
                    }
                  ],
                  "url": "http://hl7.org/fhir/StructureDefinition/patient-birthPlace"
                }
              ],
              "gender": "female",
              "generalPractitioner": [
                {
                  "reference": "PractitionerRole/09f286fdb40e9e67ea795e45b7e38562"
                }
              ],
              "id": "3fc334e44df0e55221efc90bbd5381eb",
              "identifier": [
                {
                  "system": "urn:oid:2.16.840.1.113883.4.1",
                  "value": "444222222"
                }
              ],
              "managingOrganization": {
                "reference": "Organization/e0fbfb9aef667fcec9ebba1a68c11bc5"
              },
              "maritalStatus": {
                "coding": [
                  {
                    "code": "M",
                    "display": "Married",
                    "system": "urn:oid:2.16.840.1.113883.5.2"
                  }
                ]
              },
              "meta": {
                "source": "Xyz Organization"
              },
              "name": [
                {
                  "given": [
                    "Eve"
                  ],
                  "use": "usual"
                },
                {
                  "given": [
                    "Eve"
                  ],
                  "use": "usual"
                }
              ],
              "resourceType": "Patient",
              "telecom": [
                {
                  "system": "phone",
                  "value": "tel:+1(555)555-2003"
                }
              ]
            }
          },
          {
            "resource": {
              "active": true,
              "address": [
                {
                  "city": "Portland",
                  "country": "US",
                  "line": [
                    "1009 Healthcare Drive"
                  ],
                  "postalCode": "99123",
                  "state": "OR"
                }
              ],
              "id": "1e6097251479475cfa73ec0ea0b78d4f",
              "identifier": [
                {
                  "system": "urn:oid:2.16.840.1.113883.4.6",
                  "value": "321CX"
                }
              ],
              "meta": {
                "source": "Xyz Organization"
              },
              "name": "Good Health HIE",
              "resourceType": "Organization",
              "telecom": [
                {
                  "system": "phone",
                  "value": "tel:+1(555)555-1009"
                }
              ]
            }
          },
          {
            "resource": {
              "active": true,
              "code": [
                {
                  "coding": [
                    {
                      "code": "207QA0505X",
                      "display": "Adult Medicine",
                      "system": "urn:oid:2.16.840.1.113883.6.101"
                    }
                  ]
                }
              ],
              "id": "b00f3e5a01e26589922511db17b26be6",
              "identifier": [
                {
                  "system": "urn:oid:2.16.840.1.113883.4.6",
                  "value": "5555555555"
                }
              ],
              "location": [
                {
                  "reference": "Location/770428b7d14d18e2cea60c54e4586e1f"
                }
              ],
              "meta": {
                "source": "Xyz Organization"
              },
              "organization": {
                "reference": "Organization/9eb867e38c4b0ab4baf8b62b9caab2f8"
              },
              "practitioner": {
                "reference": "Practitioner/5ddb512b26a77a91943c0a73edc265a9"
              },
              "resourceType": "PractitionerRole",
              "telecom": [
                {
                  "system": "phone",
                  "value": "tel:+1(555)555-1004"
                }
              ]
            }
          },
          {
            "resource": {
              "bornDate": "1910-01-01",
              "condition": [
                {
                  "code": {
                    "coding": [
                      {
                        "code": "22298006",
                        "display": "Myocardial infarction",
                        "system": "urn:oid:2.16.840.1.113883.6.96"
                      }
                    ]
                  },
                  "contributedToDeath": true,
                  "onsetAge": {
                    "code": "a",
                    "system": "http://unitsofmeasure.org",
                    "unit": "yr",
                    "value": 57
                  },
                  "outcome": {
                    "coding": [
                      {
                        "code": "419099009",
                        "display": "Dead",
                        "system": "urn:oid:2.16.840.1.113883.6.96"
                      }
                    ]
                  }
                },
                {
                  "code": {
                    "coding": [
                      {
                        "code": "44054006",
                        "display": "Diabetes mellitus type 2",
                        "system": "urn:oid:2.16.840.1.113883.6.96"
                      }
                    ]
                  },
                  "contributedToDeath": false,
                  "onsetAge": {
                    "code": "a",
                    "system": "http://unitsofmeasure.org",
                    "unit": "yr",
                    "value": 40
                  }
                }
              ],
              "deceasedBoolean": true,
              "id": "47da0271f1ff9ba58b338e5dbfab7ff0",
              "meta": {
                "source": "Xyz Organization"
              },
              "patient": {
                "reference": "Patient/3fc334e44df0e55221efc90bbd5381eb"
              },
              "relationship": {
                "coding": [
                  {
                    "code": "FTH",
                    "display": "Father",
                    "system": "urn:oid:2.16.840.1.113883.5.111"
                  }
                ]
              },
              "resourceType": "FamilyMemberHistory",
              "sex": {
                "coding": [
                  {
                    "code": "M",
                    "display": "Male",
                    "system": "urn:oid:2.16.840.1.113883.1.11.1"
                  }
                ]
              },
              "status": "completed"
            }
          },
          {
            "resource": {
              "id": "dc282e8eaa9bd43005b04741d234fd7c",
              "identifier": [
                {
                  "system": "http://hl7.org/fhir/sid/us-npi",
                  "value": "unkown"
                }
              ],
              "meta": {
                "source": "Xyz Organization"
              },
              "name": [
                {
                  "family": "unkown"
                }
              ],
              "resourceType": "Practitioner"
            }
          },
          {
            "resource": {
              "active": true,
              "code": [
                {
                  "coding": [
                    {
                      "code": "207QA0505X",
                      "display": "Adult Medicine",
                      "system": "urn:oid:2.16.840.1.113883.6.101"
                    }
                  ]
                }
              ],
              "id": "4130993393eea4d419db42d90ca550a2",
              "identifier": [
                {
                  "system": "urn:oid:2.16.840.1.113883.4.6",
                  "value": "555555555"
                }
              ],
              "meta": {
                "source": "Xyz Organization"
              },
              "organization": {
                "reference": "Organization/9eb867e38c4b0ab4baf8b62b9caab2f8"
              },
              "practitioner": {
                "reference": "Practitioner/dc282e8eaa9bd43005b04741d234fd7c"
              },
              "resourceType": "PractitionerRole"
            }
          },
          {
            "resource": {
              "category": [
                {
                  "coding": [
                    {
                      "code": "vital-signs",
                      "system": "http://terminology.hl7.org/CodeSystem/observation-category"
                    }
                  ]
                }
              ],
              "code": {
                "coding": [
                  {
                    "code": "8302-2",
                    "display": "Height",
                    "system": "urn:oid:2.16.840.1.113883.6.1"
                  }
                ]
              },
              "component": [
                {
                  "code": {
                    "coding": [
                      {
                        "code": "8302-2",
                        "display": "Height",
                        "system": "urn:oid:2.16.840.1.113883.6.1"
                      }
                    ]
                  },
                  "valueQuantity": {
                    "unit": "cm",
                    "value": 177
                  }
                }
              ],
              "effectiveDateTime": "2012-09-10T00:00:00+09:00",
              "id": "a2347a7337f90320df5e4706131dc1aa",
              "interpretation": [
                {
                  "coding": [
                    {
                      "code": "N",
                      "system": "urn:oid:2.16.840.1.113883.5.83"
                    }
                  ]
                }
              ],
              "issued": "2008-09-10T11:45:00.109910Z",
              "meta": {
                "source": "Xyz Organization"
              },
              "performer": [
                {
                  "reference": "PractitionerRole/4130993393eea4d419db42d90ca550a2"
                }
              ],
              "resourceType": "Observation",
              "status": "final",
              "subject": {
                "reference": "Patient/3fc334e44df0e55221efc90bbd5381eb"
              }
            }
          },
          {
            "resource": {
              "category": [
                {
                  "coding": [
                    {
                      "code": "vital-signs",
                      "system": "http://terminology.hl7.org/CodeSystem/observation-category"
                    }
                  ]
                }
              ],
              "code": {
                "coding": [
                  {
                    "code": "3141-9",
                    "display": "Patient Body Weight - Measured",
                    "system": "urn:oid:2.16.840.1.113883.6.1"
                  }
                ]
              },
              "component": [
                {
                  "code": {
                    "coding": [
                      {
                        "code": "3141-9",
                        "display": "Patient Body Weight - Measured",
                        "system": "urn:oid:2.16.840.1.113883.6.1"
                      }
                    ]
                  },
                  "valueQuantity": {
                    "unit": "kg",
                    "value": 86
                  }
                }
              ],
              "effectiveDateTime": "2012-09-10T00:00:00+09:00",
              "id": "0f959e84448090abb9c5d8ba609b2dcd",
              "interpretation": [
                {
                  "coding": [
                    {
                      "code": "N",
                      "system": "urn:oid:2.16.840.1.113883.5.83"
                    }
                  ]
                }
              ],
              "issued": "2008-09-10T11:45:00.109910Z",
              "meta": {
                "source": "Xyz Organization"
              },
              "performer": [
                {
                  "reference": "PractitionerRole/4130993393eea4d419db42d90ca550a2"
                }
              ],
              "resourceType": "Observation",
              "status": "final",
              "subject": {
                "reference": "Patient/3fc334e44df0e55221efc90bbd5381eb"
              }
            }
          },
          {
            "resource": {
              "category": [
                {
                  "coding": [
                    {
                      "code": "vital-signs",
                      "system": "http://terminology.hl7.org/CodeSystem/observation-category"
                    }
                  ]
                }
              ],
              "code": {
                "coding": [
                  {
                    "code": "8480-6",
                    "display": "Intravascular Systolic",
                    "system": "urn:oid:2.16.840.1.113883.6.1"
                  }
                ]
              },
              "component": [
                {
                  "code": {
                    "coding": [
                      {
                        "code": "8480-6",
                        "display": "Intravascular Systolic",
                        "system": "urn:oid:2.16.840.1.113883.6.1"
                      }
                    ]
                  },
                  "valueQuantity": {
                    "unit": "mm[Hg]",
                    "value": 132
                  }
                }
              ],
              "effectiveDateTime": "2012-09-10T00:00:00+09:00",
              "id": "64097ab545d310bb908e517c4e04b47f",
              "interpretation": [
                {
                  "coding": [
                    {
                      "code": "N",
                      "system": "urn:oid:2.16.840.1.113883.5.83"
                    }
                  ]
                }
              ],
              "issued": "2008-09-10T11:45:00.109910Z",
              "meta": {
                "source": "Xyz Organization"
              },
              "performer": [
                {
                  "reference": "PractitionerRole/4130993393eea4d419db42d90ca550a2"
                }
              ],
              "resourceType": "Observation",
              "status": "final",
              "subject": {
                "reference": "Patient/3fc334e44df0e55221efc90bbd5381eb"
              }
            }
          },
          {
            "resource": {
              "category": [
                {
                  "coding": [
                    {
                      "code": "vital-signs",
                      "system": "http://terminology.hl7.org/CodeSystem/observation-category"
                    }
                  ]
                }
              ],
              "code": {
                "coding": [
                  {
                    "code": "8462-4",
                    "display": "BP Diastolic",
                    "system": "urn:oid:2.16.840.1.113883.6.1"
                  }
                ]
              },
              "component": [
                {
                  "code": {
                    "coding": [
                      {
                        "code": "8462-4",
                        "display": "BP Diastolic",
                        "system": "urn:oid:2.16.840.1.113883.6.1"
                      }
                    ]
                  },
                  "valueQuantity": {
                    "unit": "mm[Hg]",
                    "value": 88
                  }
                }
              ],
              "effectiveDateTime": "2012-09-10T00:00:00+09:00",
              "id": "85f8564bbcc38ae683fd687c170fa8e7",
              "interpretation": [
                {
                  "coding": [
                    {
                      "code": "N",
                      "system": "urn:oid:2.16.840.1.113883.5.83"
                    }
                  ]
                }
              ],
              "issued": "2008-09-01T09:15:00.1991Z",
              "meta": {
                "source": "Xyz Organization"
              },
              "performer": [
                {
                  "reference": "PractitionerRole/4130993393eea4d419db42d90ca550a2"
                }
              ],
              "resourceType": "Observation",
              "status": "final",
              "subject": {
                "reference": "Patient/3fc334e44df0e55221efc90bbd5381eb"
              }
            }
          },
          {
            "resource": {
              "category": [
                {
                  "coding": [
                    {
                      "code": "vital-signs",
                      "system": "http://terminology.hl7.org/CodeSystem/observation-category"
                    }
                  ]
                }
              ],
              "code": {
                "coding": [
                  {
                    "code": "8302-2",
                    "display": "Height",
                    "system": "urn:oid:2.16.840.1.113883.6.1"
                  }
                ]
              },
              "component": [
                {
                  "code": {
                    "coding": [
                      {
                        "code": "8302-2",
                        "display": "Height",
                        "system": "urn:oid:2.16.840.1.113883.6.1"
                      }
                    ]
                  },
                  "valueQuantity": {
                    "unit": "cm",
                    "value": 177
                  }
                }
              ],
              "effectiveDateTime": "2011-09-01T00:00:00+09:00",
              "id": "bbc8c9ab88bce728ce367163525b9f41",
              "interpretation": [
                {
                  "coding": [
                    {
                      "code": "N",
                      "system": "urn:oid:2.16.840.1.113883.5.83"
                    }
                  ]
                }
              ],
              "issued": "2008-09-01T09:15:00.1991Z",
              "meta": {
                "source": "Xyz Organization"
              },
              "performer": [
                {
                  "reference": "PractitionerRole/4130993393eea4d419db42d90ca550a2"
                }
              ],
              "resourceType": "Observation",
              "status": "final",
              "subject": {
                "reference": "Patient/3fc334e44df0e55221efc90bbd5381eb"
              }
            }
          },
          {
            "resource": {
              "category": [
                {
                  "coding": [
                    {
                      "code": "vital-signs",
                      "system": "http://terminology.hl7.org/CodeSystem/observation-category"
                    }
                  ]
                }
              ],
              "code": {
                "coding": [
                  {
                    "code": "3141-9",
                    "display": "Patient Body Weight - Measured",
                    "system": "urn:oid:2.16.840.1.113883.6.1"
                  }
                ]
              },
              "component": [
                {
                  "code": {
                    "coding": [
                      {
                        "code": "3141-9",
                        "display": "Patient Body Weight - Measured",
                        "system": "urn:oid:2.16.840.1.113883.6.1"
                      }
                    ]
                  },
                  "valueQuantity": {
                    "unit": "kg",
                    "value": 88
                  }
                }
              ],
              "effectiveDateTime": "2011-09-01T00:00:00+09:00",
              "id": "45adab11f421af1b06770e6ae45bb95f",
              "interpretation": [
                {
                  "coding": [
                    {
                      "code": "N",
                      "system": "urn:oid:2.16.840.1.113883.5.83"
                    }
                  ]
                }
              ],
              "issued": "2008-09-01T09:15:00.1991Z",
              "meta": {
                "source": "Xyz Organization"
              },
              "performer": [
                {
                  "reference": "PractitionerRole/4130993393eea4d419db42d90ca550a2"
                }
              ],
              "resourceType": "Observation",
              "status": "final",
              "subject": {
                "reference": "Patient/3fc334e44df0e55221efc90bbd5381eb"
              }
            }
          },
          {
            "resource": {
              "category": [
                {
                  "coding": [
                    {
                      "code": "vital-signs",
                      "system": "http://terminology.hl7.org/CodeSystem/observation-category"
                    }
                  ]
                }
              ],
              "code": {
                "coding": [
                  {
                    "code": "8480-6",
                    "display": "BP Systolic",
                    "system": "urn:oid:2.16.840.1.113883.6.1"
                  }
                ]
              },
              "component": [
                {
                  "code": {
                    "coding": [
                      {
                        "code": "8480-6",
                        "display": "BP Systolic",
                        "system": "urn:oid:2.16.840.1.113883.6.1"
                      }
                    ]
                  },
                  "valueQuantity": {
                    "unit": "mm[Hg]",
                    "value": 128
                  }
                }
              ],
              "effectiveDateTime": "2011-09-01T00:00:00+09:00",
              "id": "1f4cb8ca360336830e0156662f1598e8",
              "interpretation": [
                {
                  "coding": [
                    {
                      "code": "N",
                      "system": "urn:oid:2.16.840.1.113883.5.83"
                    }
                  ]
                }
              ],
              "issued": "2008-09-01T09:15:00.1991Z",
              "meta": {
                "source": "Xyz Organization"
              },
              "performer": [
                {
                  "reference": "PractitionerRole/4130993393eea4d419db42d90ca550a2"
                }
              ],
              "resourceType": "Observation",
              "status": "final",
              "subject": {
                "reference": "Patient/3fc334e44df0e55221efc90bbd5381eb"
              }
            }
          },
          {
            "resource": {
              "category": [
                {
                  "coding": [
                    {
                      "code": "vital-signs",
                      "system": "http://terminology.hl7.org/CodeSystem/observation-category"
                    }
                  ]
                }
              ],
              "code": {
                "coding": [
                  {
                    "code": "8462-4",
                    "display": "BP Diastolic",
                    "system": "urn:oid:2.16.840.1.113883.6.1"
                  }
                ]
              },
              "component": [
                {
                  "code": {
                    "coding": [
                      {
                        "code": "8462-4",
                        "display": "BP Diastolic",
                        "system": "urn:oid:2.16.840.1.113883.6.1"
                      }
                    ]
                  },
                  "valueQuantity": {
                    "unit": "mm[Hg]",
                    "value": 80
                  }
                }
              ],
              "effectiveDateTime": "2011-09-01T00:00:00+09:00",
              "id": "02c559cd6c40d61fac8e431a38791b9c",
              "interpretation": [
                {
                  "coding": [
                    {
                      "code": "N",
                      "system": "urn:oid:2.16.840.1.113883.5.83"
                    }
                  ]
                }
              ],
              "issued": "2008-09-01T09:15:00.1991Z",
              "meta": {
                "source": "Xyz Organization"
              },
              "performer": [
                {
                  "reference": "PractitionerRole/4130993393eea4d419db42d90ca550a2"
                }
              ],
              "resourceType": "Observation",
              "status": "final",
              "subject": {
                "reference": "Patient/3fc334e44df0e55221efc90bbd5381eb"
              }
            }
          },
          {
            "resource": {
              "category": [
                {
                  "coding": [
                    {
                      "code": "social-history",
                      "system": "http://terminology.hl7.org/CodeSystem/observation-category"
                    }
                  ]
                }
              ],
              "code": {
                "coding": [
                  {
                    "code": "72166-2",
                    "display": "Tobacco smoking status NHIS",
                    "system": "urn:oid:2.16.840.1.113883.6.1"
                  }
                ]
              },
              "component": [
                {
                  "code": {
                    "coding": [
                      {
                        "code": "72166-2",
                        "display": "Tobacco smoking status NHIS",
                        "system": "urn:oid:2.16.840.1.113883.6.1"
                      }
                    ]
                  },
                  "valueCodeableConcept": {
                    "coding": [
                      {
                        "code": "8517006",
                        "display": "Former smoker",
                        "system": "urn:oid:2.16.840.1.113883.6.96"
                      }
                    ]
                  }
                }
              ],
              "effectiveDateTime": "2012-09-10T00:00:00+09:00",
              "id": "c11fcaa3463d67df0720a4fb45aa1d16",
              "identifier": [
                {
                  "system": "urn:oid:2.16.840.1.113883.19",
                  "value": "123456789"
                }
              ],
              "issued": "2008-09-10T11:45:00.109910Z",
              "meta": {
                "source": "Xyz Organization"
              },
              "performer": [
                {
                  "reference": "PractitionerRole/4130993393eea4d419db42d90ca550a2"
                }
              ],
              "resourceType": "Observation",
              "status": "final",
              "subject": {
                "reference": "Patient/3fc334e44df0e55221efc90bbd5381eb"
              }
            }
          },
          {
            "resource": {
              "category": [
                {
                  "coding": [
                    {
                      "code": "social-history",
                      "system": "http://terminology.hl7.org/CodeSystem/observation-category"
                    }
                  ]
                }
              ],
              "code": {
                "coding": [
                  {
                    "code": "11367-0",
                    "display": "History of tobacco use",
                    "system": "urn:oid:2.16.840.1.113883.6.1"
                  }
                ]
              },
              "component": [
                {
                  "code": {
                    "coding": [
                      {
                        "code": "11367-0",
                        "display": "History of tobacco use",
                        "system": "urn:oid:2.16.840.1.113883.6.1"
                      }
                    ]
                  },
                  "valueCodeableConcept": {
                    "coding": [
                      {
                        "code": "160604004",
                        "display": "Moderate cigarette smoker, 10-19/day",
                        "system": "urn:oid:2.16.840.1.113883.6.96"
                      }
                    ]
                  }
                }
              ],
              "effectivePeriod": {
                "end": "2011-02-15T00:00:00+02:00",
                "start": "2009-02-14T00:00:00+02:00"
              },
              "id": "1535036f69b6b5d6a2c0e0eaa5ba17d0",
              "issued": "2008-09-10T11:45:00.109910Z",
              "meta": {
                "source": "Xyz Organization"
              },
              "performer": [
                {
                  "reference": "PractitionerRole/4130993393eea4d419db42d90ca550a2"
                }
              ],
              "resourceType": "Observation",
              "status": "final",
              "subject": {
                "reference": "Patient/3fc334e44df0e55221efc90bbd5381eb"
              }
            }
          },
          {
            "resource": {
              "category": [
                {
                  "coding": [
                    {
                      "code": "social-history",
                      "system": "http://terminology.hl7.org/CodeSystem/observation-category"
                    }
                  ]
                }
              ],
              "code": {
                "coding": [
                  {
                    "code": "74013-4",
                    "display": "Alcoholic drinks per day",
                    "system": "urn:oid:2.16.840.1.113883.6.1"
                  }
                ]
              },
              "component": [
                {
                  "code": {
                    "coding": [
                      {
                        "code": "74013-4",
                        "display": "Alcoholic drinks per day",
                        "system": "urn:oid:2.16.840.1.113883.6.1"
                      }
                    ]
                  },
                  "valueQuantity": {
                    "value": 12
                  }
                }
              ],
              "effectivePeriod": {
                "start": "2012-02-15T00:00:00+02:00"
              },
              "id": "7300a74905b192f1c94e9f8c33eb0316",
              "issued": "2008-09-10T11:45:00.109910Z",
              "meta": {
                "source": "Xyz Organization"
              },
              "performer": [
                {
                  "reference": "PractitionerRole/4130993393eea4d419db42d90ca550a2"
                }
              ],
              "resourceType": "Observation",
              "status": "final",
              "subject": {
                "reference": "Patient/3fc334e44df0e55221efc90bbd5381eb"
              }
            }
          },
          {
            "resource": {
              "active": true,
              "code": [
                {
                  "coding": [
                    {
                      "code": "59058001",
                      "display": "General Physician",
                      "system": "urn:oid:2.16.840.1.113883.6.96"
                    }
                  ]
                }
              ],
              "id": "3e9882fb516c6b3624e11d729a6b4c6f",
              "identifier": [
                {
                  "system": "urn:oid:2.16.840.1.113883.4.6",
                  "value": "333444555"
                }
              ],
              "meta": {
                "source": "Xyz Organization"
              },
              "organization": {
                "reference": "Organization/9eb867e38c4b0ab4baf8b62b9caab2f8"
              },
              "practitioner": {
                "reference": "Practitioner/dc282e8eaa9bd43005b04741d234fd7c"
              },
              "resourceType": "PractitionerRole"
            }
          },
          {
            "resource": {
              "address": {
                "city": "Portland",
                "country": "US",
                "line": [
                  "1007 Health Drive"
                ],
                "postalCode": "99123",
                "state": "OR"
              },
              "id": "58cd28428d21ac715afad3ece3573fd9",
              "meta": {
                "source": "Xyz Organization"
              },
              "name": "Good Health Urgent Care",
              "resourceType": "Location",
              "telecom": [
                {
                  "system": "phone",
                  "value": "tel: +1(555)555-1030"
                }
              ],
              "type": [
                {
                  "coding": [
                    {
                      "code": "1160-1",
                      "display": "Urgent Care Center",
                      "system": "urn:oid:2.16.840.1.113883.6.259"
                    }
                  ]
                }
              ]
            }
          },
          {
            "resource": {
              "class": {
                "code": "99213",
                "display": "Office outpatient visit 15 minutes",
                "system": "urn:oid:2.16.840.1.113883.6.12"
              },
              "id": "edd1b0996ce9d920c7f747d242b65839",
              "location": [
                {
                  "location": {
                    "reference": "Location/58cd28428d21ac715afad3ece3573fd9"
                  }
                }
              ],
              "meta": {
                "source": "Xyz Organization"
              },
              "participant": [
                {
                  "individual": {
                    "reference": "PractitionerRole/3e9882fb516c6b3624e11d729a6b4c6f"
                  }
                }
              ],
              "resourceType": "Encounter",
              "status": "unknown",
              "subject": {
                "reference": "Patient/3fc334e44df0e55221efc90bbd5381eb"
              },
              "type": [
                {
                  "coding": [
                    {
                      "code": "99213",
                      "display": "Office outpatient visit 15 minutes",
                      "system": "urn:oid:2.16.840.1.113883.6.12"
                    }
                  ]
                }
              ]
            }
          },
          {
            "resource": {
              "id": "8724aedccd9bbc1ccc1be368879e0859",
              "meta": {
                "source": "Xyz Organization"
              },
              "patient": {
                "reference": "Patient/3fc334e44df0e55221efc90bbd5381eb"
              },
              "resourceType": "Device",
              "type": {
                "coding": [
                  {
                    "code": "87405001",
                    "display": "cane, device (physical object)",
                    "system": "urn:oid:2.16.840.1.113883.6.96"
                  }
                ]
              }
            }
          },
          {
            "resource": {
              "category": [
                {
                  "coding": [
                    {
                      "code": "laboratory",
                      "system": "http://terminology.hl7.org/CodeSystem/observation-category"
                    }
                  ]
                }
              ],
              "code": {
                "coding": [
                  {
                    "code": "54522-8",
                    "display": "Functional status",
                    "system": "urn:oid:2.16.840.1.113883.6.1"
                  }
                ]
              },
              "component": [
                {
                  "code": {
                    "coding": [
                      {
                        "code": "54522-8",
                        "display": "Functional status",
                        "system": "urn:oid:2.16.840.1.113883.6.1"
                      }
                    ]
                  },
                  "valueCodeableConcept": {
                    "coding": [
                      {
                        "code": "165245003",
                        "display": "Independent walking",
                        "system": "urn:oid:2.16.840.1.113883.6.96"
                      }
                    ]
                  }
                }
              ],
              "device": {
                "reference": "Device/8724aedccd9bbc1ccc1be368879e0859"
              },
              "effectiveDateTime": "2013-03-11T00:00:00+03:00",
              "id": "0d562c2ef3daafe2c2431ad077fc5504",
              "issued": "2008-07-06T11:45:00.6776Z",
              "meta": {
                "source": "Xyz Organization"
              },
              "performer": [
                {
                  "reference": "PractitionerRole/4130993393eea4d419db42d90ca550a2"
                }
              ],
              "resourceType": "Observation",
              "status": "final",
              "subject": {
                "reference": "Patient/3fc334e44df0e55221efc90bbd5381eb"
              }
            }
          },
          {
            "resource": {
              "category": [
                {
                  "coding": [
                    {
                      "code": "laboratory",
                      "system": "http://terminology.hl7.org/CodeSystem/observation-category"
                    }
                  ]
                }
              ],
              "code": {
                "coding": [
                  {
                    "code": "46008-9",
                    "display": "Bathing",
                    "system": "urn:oid:2.16.840.1.113883.6.1"
                  }
                ]
              },
              "component": [
                {
                  "code": {
                    "coding": [
                      {
                        "code": "46008-9",
                        "display": "Bathing",
                        "system": "urn:oid:2.16.840.1.113883.6.1"
                      }
                    ]
                  },
                  "valueCodeableConcept": {
                    "coding": [
                      {
                        "code": "371153006",
                        "display": "Independent",
                        "system": "urn:oid:2.16.840.1.113883.6.96"
                      }
                    ]
                  }
                }
              ],
              "effectiveDateTime": "2003-03-11T00:00:00+03:00",
              "id": "30d234a5ab4ee284c3d23b40c200cc65",
              "issued": "2008-07-06T11:48:00.6776Z",
              "meta": {
                "source": "Xyz Organization"
              },
              "performer": [
                {
                  "reference": "PractitionerRole/4130993393eea4d419db42d90ca550a2"
                }
              ],
              "resourceType": "Observation",
              "status": "final",
              "subject": {
                "reference": "Patient/3fc334e44df0e55221efc90bbd5381eb"
              }
            }
          },
          {
            "resource": {
              "active": true,
              "code": [
                {
                  "coding": [
                    {
                      "code": "207QA0505X",
                      "display": "Adult Medicine",
                      "system": "urn:oid:2.16.840.1.113883.6.101"
                    }
                  ]
                }
              ],
              "id": "48ca8f4c3828ba4bb2b7027fcf665163",
              "identifier": [
                {
                  "system": "urn:oid:2.16.840.1.113883.4.6",
                  "value": "222334444"
                }
              ],
              "meta": {
                "source": "Xyz Organization"
              },
              "organization": {
                "reference": "Organization/9eb867e38c4b0ab4baf8b62b9caab2f8"
              },
              "practitioner": {
                "reference": "Practitioner/dc282e8eaa9bd43005b04741d234fd7c"
              },
              "resourceType": "PractitionerRole"
            }
          },
          {
            "resource": {
              "asserter": {
                "reference": "PractitionerRole/4130993393eea4d419db42d90ca550a2"
              },
              "category": [
                {
                  "coding": [
                    {
                      "code": "75323-6",
                      "display": "Condition",
                      "system": "urn:oid:2.16.840.1.113883.6.1"
                    }
                  ]
                }
              ],
              "clinicalStatus": {
                "coding": [
                  {
                    "code": "active",
                    "system": "http://terminology.hl7.org/CodeSystem/condition-clinical"
                  }
                ]
              },
              "code": {
                "coding": [
                  {
                    "code": "233604007",
                    "display": "Pneumonia",
                    "system": "urn:oid:2.16.840.1.113883.6.96"
                  }
                ]
              },
              "id": "25b79e26d06497c6f4c051d2fc0ce867",
              "meta": {
                "source": "Xyz Organization"
              },
              "onsetDateTime": "2013-07-03T00:00:00+07:00",
              "recordedDate": "2008-08-14T10:30:00+08:00",
              "resourceType": "Condition",
              "subject": {
                "reference": "Patient/3fc334e44df0e55221efc90bbd5381eb"
              }
            }
          },
          {
            "resource": {
              "asserter": {
                "reference": "PractitionerRole/4130993393eea4d419db42d90ca550a2"
              },
              "category": [
                {
                  "coding": [
                    {
                      "code": "75323-6",
                      "display": "Condition",
                      "system": "urn:oid:2.16.840.1.113883.6.1"
                    }
                  ]
                }
              ],
              "clinicalStatus": {
                "coding": [
                  {
                    "code": "active",
                    "system": "http://terminology.hl7.org/CodeSystem/condition-clinical"
                  }
                ]
              },
              "code": {
                "coding": [
                  {
                    "code": "29857009",
                    "display": "Chest pain",
                    "system": "urn:oid:2.16.840.1.113883.6.96"
                  }
                ]
              },
              "id": "402bbfdfca8d7fbdb5d0c21eeae97fec",
              "meta": {
                "source": "Xyz Organization"
              },
              "onsetDateTime": "2007-04-14T00:00:00+04:00",
              "recordedDate": "2008-04-14T15:15:00+04:00",
              "resourceType": "Condition",
              "subject": {
                "reference": "Patient/3fc334e44df0e55221efc90bbd5381eb"
              }
            }
          },
          {
            "resource": {
              "asserter": {
                "reference": "PractitionerRole/48ca8f4c3828ba4bb2b7027fcf665163"
              },
              "category": [
                {
                  "coding": [
                    {
                      "code": "75323-6",
                      "display": "Condition",
                      "system": "urn:oid:2.16.840.1.113883.6.1"
                    }
                  ]
                }
              ],
              "clinicalStatus": {
                "coding": [
                  {
                    "code": "active",
                    "system": "http://terminology.hl7.org/CodeSystem/condition-clinical"
                  }
                ]
              },
              "code": {
                "coding": [
                  {
                    "code": "194828000",
                    "display": "Angina",
                    "system": "urn:oid:2.16.840.1.113883.6.96"
                  }
                ]
              },
              "id": "c3b329670d0e4adb56ca8887c2f8f783",
              "meta": {
                "source": "Xyz Organization"
              },
              "onsetDateTime": "2007-04-17T00:00:00+04:00",
              "recordedDate": "2008-04-17T15:15:00+04:00",
              "resourceType": "Condition",
              "subject": {
                "reference": "Patient/3fc334e44df0e55221efc90bbd5381eb"
              }
            }
          },
          {
            "resource": {
              "asserter": {
                "reference": "PractitionerRole/4130993393eea4d419db42d90ca550a2"
              },
              "category": [
                {
                  "coding": [
                    {
                      "code": "75323-6",
                      "display": "Condition",
                      "system": "urn:oid:2.16.840.1.113883.6.1"
                    }
                  ]
                }
              ],
              "clinicalStatus": {
                "coding": [
                  {
                    "code": "active",
                    "system": "http://terminology.hl7.org/CodeSystem/condition-clinical"
                  }
                ]
              },
              "code": {
                "coding": [
                  {
                    "code": "233604007",
                    "display": "Pneumonia",
                    "system": "urn:oid:2.16.840.1.113883.6.96"
                  }
                ]
              },
              "id": "a00564402284b37022721646022cc6b4",
              "meta": {
                "source": "Xyz Organization"
              },
              "onsetDateTime": "1998-03-10T00:00:00+03:00",
              "recordedDate": "2008-03-16T10:30:00+03:00",
              "resourceType": "Condition",
              "subject": {
                "reference": "Patient/3fc334e44df0e55221efc90bbd5381eb"
              }
            }
          },
          {
            "resource": {
              "address": {
                "city": "Portland",
                "country": "US",
                "line": [
                  "1001 Village Avenue"
                ],
                "postalCode": "99123",
                "state": "OR"
              },
              "id": "7a8ada479165c2ad50c02a7e2c36362b",
              "meta": {
                "source": "Xyz Organization"
              },
              "name": "unknown",
              "resourceType": "Location"
            }
          },
          {
            "resource": {
              "active": true,
              "address": [
                {
                  "city": "Portland",
                  "country": "US",
                  "line": [
                    "1001 Village Avenue"
                  ],
                  "postalCode": "99123",
                  "state": "OR"
                }
              ],
              "id": "4cd56a1a868c2f64766f0dbe853c0300",
              "meta": {
                "source": "Xyz Organization"
              },
              "name": "Community Health and Hospitals",
              "resourceType": "Organization",
              "telecom": [
                {
                  "system": "phone",
                  "value": "+1(555)555-5000"
                }
              ]
            }
          },
          {
            "resource": {
              "active": true,
              "id": "1f25f3363665dcb09299d030b3043e55",
              "identifier": [
                {
                  "system": "urn:oid:2.16.840.1.113883.19.5.9999.456",
                  "value": "2981823"
                }
              ],
              "location": [
                {
                  "reference": "Location/7a8ada479165c2ad50c02a7e2c36362b"
                }
              ],
              "meta": {
                "source": "Xyz Organization"
              },
              "organization": {
                "reference": "Organization/4cd56a1a868c2f64766f0dbe853c0300"
              },
              "practitioner": {
                "reference": "Practitioner/dc282e8eaa9bd43005b04741d234fd7c"
              },
              "resourceType": "PractitionerRole",
              "telecom": [
                {
                  "system": "phone",
                  "value": "+1(555)555-5000"
                }
              ]
            }
          },
          {
            "resource": {
              "bodySite": [
                {
                  "coding": [
                    {
                      "code": "appropriate_code",
                      "display": "colon",
                      "system": "urn:oid:2.16.840.1.113883.3.88.12.3221.8.9"
                    }
                  ]
                }
              ],
              "code": {
                "coding": [
                  {
                    "code": "73761001",
                    "display": "Colonoscopy",
                    "system": "urn:oid:2.16.840.1.113883.6.96"
                  }
                ]
              },
              "id": "0cdaadf399bcb13d0943e4b9189088d5",
              "meta": {
                "source": "Xyz Organization"
              },
              "performedDateTime": "2012-05-12T00:00:00+05:00",
              "performer": [
                {
                  "actor": {
                    "reference": "PractitionerRole/1f25f3363665dcb09299d030b3043e55"
                  }
                }
              ],
              "resourceType": "Procedure",
              "status": "completed",
              "subject": {
                "reference": "Patient/3fc334e44df0e55221efc90bbd5381eb"
              }
            }
          },
          {
            "resource": {
              "active": true,
              "code": [
                {
                  "coding": [
                    {
                      "code": "246Q00000X",
                      "display": "Technician, Pathology",
                      "system": "urn:oid:2.16.840.1.113883.6.101"
                    }
                  ]
                }
              ],
              "id": "7fa276b0da05580f7cb3d2571cdb34f7",
              "identifier": [
                {
                  "system": "urn:oid:2.16.840.1.113883.4.6",
                  "value": "333444444"
                }
              ],
              "meta": {
                "source": "Xyz Organization"
              },
              "organization": {
                "reference": "Organization/9eb867e38c4b0ab4baf8b62b9caab2f8"
              },
              "practitioner": {
                "reference": "Practitioner/dc282e8eaa9bd43005b04741d234fd7c"
              },
              "resourceType": "PractitionerRole"
            }
          },
          {
            "resource": {
              "category": [
                {
                  "coding": [
                    {
                      "code": "laboratory",
                      "system": "http://terminology.hl7.org/CodeSystem/observation-category"
                    }
                  ]
                }
              ],
              "code": {
                "coding": [
                  {
                    "code": "718-7",
                    "display": "Hemoglobin",
                    "system": "urn:oid:2.16.840.1.113883.6.1"
                  }
                ]
              },
              "component": [
                {
                  "code": {
                    "coding": [
                      {
                        "code": "718-7",
                        "display": "Hemoglobin",
                        "system": "urn:oid:2.16.840.1.113883.6.1"
                      }
                    ]
                  },
                  "valueQuantity": {
                    "unit": "g/dL",
                    "value": 13.2
                  }
                }
              ],
              "effectiveDateTime": "2008-03-19T08:30:00+03:00",
              "id": "71d897f3414a4dd45f4f2e53d6d57850",
              "interpretation": [
                {
                  "coding": [
                    {
                      "code": "N",
                      "system": "urn:oid:2.16.840.1.113883.5.83"
                    }
                  ]
                }
              ],
              "issued": "2008-03-19T08:30:00.193319Z",
              "meta": {
                "source": "Xyz Organization"
              },
              "performer": [
                {
                  "reference": "PractitionerRole/7fa276b0da05580f7cb3d2571cdb34f7"
                }
              ],
              "referenceRange": [
                {
                  "high": {
                    "unit": "g/dL",
                    "value": 15.5
                  },
                  "low": {
                    "unit": "g/dL",
                    "value": 12
                  }
                }
              ],
              "resourceType": "Observation",
              "status": "final",
              "subject": {
                "reference": "Patient/3fc334e44df0e55221efc90bbd5381eb"
              }
            }
          },
          {
            "resource": {
              "category": [
                {
                  "coding": [
                    {
                      "code": "laboratory",
                      "system": "http://terminology.hl7.org/CodeSystem/observation-category"
                    }
                  ]
                }
              ],
              "code": {
                "coding": [
                  {
                    "code": "6690-2",
                    "display": "Leukocytes",
                    "system": "urn:oid:2.16.840.1.113883.6.1"
                  }
                ]
              },
              "component": [
                {
                  "code": {
                    "coding": [
                      {
                        "code": "6690-2",
                        "display": "Leukocytes",
                        "system": "urn:oid:2.16.840.1.113883.6.1"
                      }
                    ]
                  },
                  "valueQuantity": {
                    "unit": "10*9/L",
                    "value": 6.7
                  }
                }
              ],
              "effectiveDateTime": "2008-03-19T08:30:00+03:00",
              "id": "61dbbc5adc2f86f6cf05839cb932bdee",
              "interpretation": [
                {
                  "coding": [
                    {
                      "code": "N",
                      "system": "urn:oid:2.16.840.1.113883.5.83"
                    }
                  ]
                }
              ],
              "issued": "2008-03-19T08:30:00.193319Z",
              "meta": {
                "source": "Xyz Organization"
              },
              "performer": [
                {
                  "reference": "PractitionerRole/7fa276b0da05580f7cb3d2571cdb34f7"
                }
              ],
              "referenceRange": [
                {
                  "high": {
                    "unit": "10*9/L",
                    "value": 10.8
                  },
                  "low": {
                    "unit": "10*9/L",
                    "value": 4.3
                  }
                }
              ],
              "resourceType": "Observation",
              "status": "final",
              "subject": {
                "reference": "Patient/3fc334e44df0e55221efc90bbd5381eb"
              }
            }
          },
          {
            "resource": {
              "category": [
                {
                  "coding": [
                    {
                      "code": "laboratory",
                      "system": "http://terminology.hl7.org/CodeSystem/observation-category"
                    }
                  ]
                }
              ],
              "code": {
                "coding": [
                  {
                    "code": "777-3",
                    "display": "Platelets",
                    "system": "urn:oid:2.16.840.1.113883.6.1"
                  }
                ]
              },
              "component": [
                {
                  "code": {
                    "coding": [
                      {
                        "code": "777-3",
                        "display": "Platelets",
                        "system": "urn:oid:2.16.840.1.113883.6.1"
                      }
                    ]
                  },
                  "valueQuantity": {
                    "unit": "10*9/L",
                    "value": 123
                  }
                }
              ],
              "effectiveDateTime": "2008-03-19T08:30:00+03:00",
              "id": "bc33048c15866c9836ec044b6ebc7679",
              "interpretation": [
                {
                  "coding": [
                    {
                      "code": "LX",
                      "system": "urn:oid:2.16.840.1.113883.5.83"
                    }
                  ]
                }
              ],
              "issued": "2008-03-19T08:30:00.193319Z",
              "meta": {
                "source": "Xyz Organization"
              },
              "performer": [
                {
                  "reference": "PractitionerRole/7fa276b0da05580f7cb3d2571cdb34f7"
                }
              ],
              "referenceRange": [
                {
                  "high": {
                    "unit": "10*9/L",
                    "value": 350
                  },
                  "low": {
                    "unit": "10*9/L",
                    "value": 150
                  }
                }
              ],
              "resourceType": "Observation",
              "status": "final",
              "subject": {
                "reference": "Patient/3fc334e44df0e55221efc90bbd5381eb"
              }
            }
          },
          {
            "resource": {
              "category": [
                {
                  "coding": [
                    {
                      "code": "laboratory",
                      "system": "http://terminology.hl7.org/CodeSystem/observation-category"
                    }
                  ]
                }
              ],
              "code": {
                "coding": [
                  {
                    "code": "4544-3",
                    "display": "Hematocrit",
                    "system": "urn:oid:2.16.840.1.113883.6.1"
                  }
                ]
              },
              "component": [
                {
                  "code": {
                    "coding": [
                      {
                        "code": "4544-3",
                        "display": "Hematocrit",
                        "system": "urn:oid:2.16.840.1.113883.6.1"
                      }
                    ]
                  },
                  "valueQuantity": {
                    "unit": "%",
                    "value": 35.3
                  }
                }
              ],
              "effectiveDateTime": "2008-03-19T08:30:00+03:00",
              "id": "d4ef33d4e442311b3e2ef0fb7c1e8f96",
              "interpretation": [
                {
                  "coding": [
                    {
                      "code": "LX",
                      "system": "urn:oid:2.16.840.1.113883.5.83"
                    }
                  ]
                }
              ],
              "issued": "2008-03-19T08:30:00.193319Z",
              "meta": {
                "source": "Xyz Organization"
              },
              "performer": [
                {
                  "reference": "PractitionerRole/7fa276b0da05580f7cb3d2571cdb34f7"
                }
              ],
              "referenceRange": [
                {
                  "high": {
                    "unit": "%",
                    "value": 44.5
                  },
                  "low": {
                    "unit": "%",
                    "value": 34.9
                  }
                }
              ],
              "resourceType": "Observation",
              "status": "final",
              "subject": {
                "reference": "Patient/3fc334e44df0e55221efc90bbd5381eb"
              }
            }
          },
          {
            "resource": {
              "category": [
                {
                  "coding": [
                    {
                      "code": "laboratory",
                      "system": "http://terminology.hl7.org/CodeSystem/observation-category"
                    }
                  ]
                }
              ],
              "code": {
                "coding": [
                  {
                    "code": "789-8",
                    "display": "Erythrocytes",
                    "system": "urn:oid:2.16.840.1.113883.6.1"
                  }
                ]
              },
              "component": [
                {
                  "code": {
                    "coding": [
                      {
                        "code": "789-8",
                        "display": "Erythrocytes",
                        "system": "urn:oid:2.16.840.1.113883.6.1"
                      }
                    ]
                  },
                  "valueQuantity": {
                    "unit": "10*12/L",
                    "value": 4.21
                  }
                }
              ],
              "effectiveDateTime": "2008-03-19T08:30:00+03:00",
              "id": "a41bcef3043a474faffd3e7aa4a154cd",
              "interpretation": [
                {
                  "coding": [
                    {
                      "code": "N",
                      "system": "urn:oid:2.16.840.1.113883.5.83"
                    }
                  ]
                }
              ],
              "issued": "2008-03-19T08:30:00.193319Z",
              "meta": {
                "source": "Xyz Organization"
              },
              "performer": [
                {
                  "reference": "PractitionerRole/7fa276b0da05580f7cb3d2571cdb34f7"
                }
              ],
              "referenceRange": [
                {
                  "high": {
                    "unit": "10*12/L",
                    "value": 5.03
                  },
                  "low": {
                    "unit": "10*12/L",
                    "value": 3.9
                  }
                }
              ],
              "resourceType": "Observation",
              "status": "final",
              "subject": {
                "reference": "Patient/3fc334e44df0e55221efc90bbd5381eb"
              }
            }
          },
          {
            "resource": {
              "category": [
                {
                  "coding": [
                    {
                      "code": "laboratory",
                      "system": "http://terminology.hl7.org/CodeSystem/observation-category"
                    }
                  ]
                }
              ],
              "code": {
                "coding": [
                  {
                    "code": "3094-0",
                    "display": "Urea nitrogen, Serum",
                    "system": "urn:oid:2.16.840.1.113883.6.1"
                  }
                ]
              },
              "component": [
                {
                  "code": {
                    "coding": [
                      {
                        "code": "3094-0",
                        "display": "Urea nitrogen, Serum",
                        "system": "urn:oid:2.16.840.1.113883.6.1"
                      }
                    ]
                  }
                }
              ],
              "effectiveDateTime": "2008-03-20T09:30:00+03:00",
              "id": "c1a34409fef42e69242cf5ccd9822686",
              "issued": "2020-01-01T01:01:01.1111Z",
              "meta": {
                "source": "Xyz Organization"
              },
              "resourceType": "Observation",
              "status": "unknown",
              "subject": {
                "reference": "Patient/3fc334e44df0e55221efc90bbd5381eb"
              }
            }
          },
          {
            "resource": {
              "category": [
                {
                  "coding": [
                    {
                      "code": "unknown"
                    }
                  ]
                }
              ],
              "code": {
                "coding": [
                  {
                    "code": "57021-8",
                    "display": "CBC W Auto Differential panel in Blood",
                    "system": "urn:oid:2.16.840.1.113883.6.1"
                  }
                ]
              },
              "effectivePeriod": {
                "end": "2008-03-19T08:30:00+03:00",
                "start": "2008-03-19T08:30:00+03:00"
              },
              "id": "659c768b95b91d9898a9237dda3d6d5e",
              "issued": "2008-03-19T08:30:00.193319Z",
              "meta": {
                "source": "Xyz Organization"
              },
              "resourceType": "DiagnosticReport",
              "result": [
                {
                  "reference": "Observation/71d897f3414a4dd45f4f2e53d6d57850"
                },
                {
                  "reference": "Observation/61dbbc5adc2f86f6cf05839cb932bdee"
                },
                {
                  "reference": "Observation/bc33048c15866c9836ec044b6ebc7679"
                },
                {
                  "reference": "Observation/d4ef33d4e442311b3e2ef0fb7c1e8f96"
                },
                {
                  "reference": "Observation/a41bcef3043a474faffd3e7aa4a154cd"
                }
              ],
              "status": "final",
              "subject": {
                "reference": "Patient/3fc334e44df0e55221efc90bbd5381eb"
              }
            }
          },
          {
            "resource": {
              "category": [
                {
                  "coding": [
                    {
                      "code": "unknown"
                    }
                  ]
                }
              ],
              "code": {
                "coding": [
                  {
                    "code": "166312007",
                    "display": "Blood chemistry test",
                    "system": "urn:oid:2.16.840.1.113883.6.96"
                  }
                ]
              },
              "effectivePeriod": {
                "end": "2008-03-20T09:30:00+03:00",
                "start": "2008-03-20T09:30:00+03:00"
              },
              "id": "3f3bb23bb2e5f5fffdd6f2c0ff426220",
              "issued": "2020-01-01T01:01:01.1111Z",
              "meta": {
                "source": "Xyz Organization"
              },
              "resourceType": "DiagnosticReport",
              "result": [
                {
                  "reference": "Observation/c1a34409fef42e69242cf5ccd9822686"
                }
              ],
              "status": "partial",
              "subject": {
                "reference": "Patient/3fc334e44df0e55221efc90bbd5381eb"
              }
            }
          },
          {
            "resource": {
              "address": {
                "city": "Ann Arbor",
                "country": "US",
                "line": [
                  "1004 Health Care Drive"
                ],
                "postalCode": "02368",
                "state": "MI"
              },
              "id": "18eeea4afdd4a63da15a40b59f952e0e",
              "meta": {
                "source": "Xyz Organization"
              },
              "name": "unknown",
              "resourceType": "Location"
            }
          },
          {
            "resource": {
              "active": true,
              "address": [
                {
                  "city": "Ann Arbor",
                  "country": "US",
                  "line": [
                    "1003 Health Care Drive"
                  ],
                  "postalCode": "02368",
                  "state": "MI"
                }
              ],
              "id": "093b1725ff8e400709a517191f1793a9",
              "meta": {
                "source": "Xyz Organization"
              },
              "name": "Community Health and Hospitals",
              "resourceType": "Organization",
              "telecom": [
                {
                  "system": "phone",
                  "value": "tel:+1(555)-555-5005"
                }
              ]
            }
          },
          {
            "resource": {
              "active": true,
              "id": "2ac6cf96864970fdc296eee1594a9199",
              "identifier": [
                {
                  "system": "urn:oid:2.16.840.1.113883.19",
                  "value": "1234"
                }
              ],
              "location": [
                {
                  "reference": "Location/18eeea4afdd4a63da15a40b59f952e0e"
                }
              ],
              "meta": {
                "source": "Xyz Organization"
              },
              "organization": {
                "reference": "Organization/093b1725ff8e400709a517191f1793a9"
              },
              "practitioner": {
                "reference": "Practitioner/dc282e8eaa9bd43005b04741d234fd7c"
              },
              "resourceType": "PractitionerRole",
              "telecom": [
                {
                  "system": "phone",
                  "value": "tel: +1(555)-555-5004"
                }
              ]
            }
          },
          {
            "resource": {
              "id": "e1a2792d2aeccedea1bc5d9e9c3650be",
              "meta": {
                "source": "Xyz Organization"
              },
              "patient": {
                "reference": "Patient/3fc334e44df0e55221efc90bbd5381eb"
              },
              "resourceType": "Device",
              "type": {
                "coding": [
                  {
                    "code": "87405001",
                    "display": "cane",
                    "system": "urn:oid:2.16.840.1.113883.6.96"
                  }
                ]
              }
            }
          },
          {
            "resource": {
              "bodySite": [
                {
                  "coding": [
                    {
                      "code": "28273000",
                      "display": "bile duct",
                      "system": "urn:oid:2.16.840.1.113883.6.96"
                    }
                  ]
                }
              ],
              "code": {
                "coding": [
                  {
                    "code": "103716009",
                    "display": "Stent Placement",
                    "system": "urn:oid:2.16.840.1.113883.6.96"
                  }
                ]
              },
              "id": "5e755991db93ad0d8adad85129ca6c62",
              "meta": {
                "source": "Xyz Organization"
              },
              "performedDateTime": "2013-05-12T00:00:00+05:00",
              "performer": [
                {
                  "actor": {
                    "reference": "PractitionerRole/2ac6cf96864970fdc296eee1594a9199"
                  }
                }
              ],
              "resourceType": "Procedure",
              "status": "completed",
              "subject": {
                "reference": "Patient/3fc334e44df0e55221efc90bbd5381eb"
              }
            }
          },
          {
            "resource": {
              "id": "bbc9f446c8f2a1384235fd1691322910",
              "meta": {
                "source": "Xyz Organization"
              },
              "patient": {
                "reference": "Patient/3fc334e44df0e55221efc90bbd5381eb"
              },
              "resourceType": "Device",
              "type": {
                "coding": [
                  {
                    "code": "14106009",
                    "display": "cardiac pacemaker, device (physical object)",
                    "system": "urn:oid:2.16.840.1.113883.6.96"
                  }
                ]
              }
            }
          },
          {
            "resource": {
              "id": "8420e1eff2a3c0bd2cbcd43b4b2faa7f",
              "meta": {
                "source": "Xyz Organization"
              },
              "patient": {
                "reference": "Patient/3fc334e44df0e55221efc90bbd5381eb"
              },
              "resourceType": "Device",
              "type": {
                "coding": [
                  {
                    "code": "303406003",
                    "display": "upper gastrointestinal prosthesis (physical object)",
                    "system": "urn:oid:2.16.840.1.113883.6.96"
                  }
                ]
              }
            }
          },
          {
            "resource": {
              "active": true,
              "id": "86fc93cd32d9327f58aff37858b47b32",
              "identifier": [
                {
                  "system": "http://hl7.org/fhir/sid/us-npi",
                  "value": "unkown"
                }
              ],
              "meta": {
                "source": "Xyz Organization"
              },
              "name": "Medication Factory Inc.",
              "resourceType": "Organization"
            }
          },
          {
            "resource": {
              "code": {
                "coding": [
                  {
                    "code": "573621",
                    "display": "Proventil 0.09 MG/ACTUAT inhalant solution",
                    "system": "urn:oid:2.16.840.1.113883.6.88"
                  }
                ]
              },
              "id": "e64a538020f9f15fcd026b6a19e78c55",
              "manufacturer": {
                "reference": "Organization/86fc93cd32d9327f58aff37858b47b32"
              },
              "meta": {
                "source": "Xyz Organization"
              },
              "resourceType": "Medication"
            }
          },
          {
            "resource": {
              "category": [
                {
                  "coding": [
                    {
                      "code": "75321-0",
                      "display": "Clinical finding",
                      "system": "urn:oid:2.16.840.1.113883.6.1"
                    }
                  ]
                }
              ],
              "clinicalStatus": {
                "coding": [
                  {
                    "code": "active",
                    "system": "http://terminology.hl7.org/CodeSystem/condition-clinical"
                  }
                ]
              },
              "code": {
                "coding": [
                  {
                    "code": "195967001",
                    "display": "Asthma",
                    "system": "urn:oid:2.16.840.1.113883.6.96"
                  }
                ]
              },
              "id": "e01ae253bf37de61b2500af35f8e2c5d",
              "identifier": [
                {
                  "system": "urn:oid:db734647-fc99-424c-a864-7e3cda82e703",
                  "value": "45665"
                }
              ],
              "meta": {
                "source": "Xyz Organization"
              },
              "onsetDateTime": "2011-01-03T00:00:00+01:00",
              "resourceType": "Condition",
              "subject": {
                "reference": "Patient/3fc334e44df0e55221efc90bbd5381eb"
              }
            }
          },
          {
            "resource": {
              "address": {
                "city": "Portland",
                "country": "US",
                "line": [
                  "1016 Health Drive"
                ],
                "postalCode": "99123",
                "state": "OR"
              },
              "id": "2d94beb3d8f6873b9a51122560cc63a7",
              "meta": {
                "source": "Xyz Organization"
              },
              "name": "unknown",
              "resourceType": "Location"
            }
          },
          {
            "resource": {
              "id": "f05a99a8061e54f3eb6566b5873837a2",
              "identifier": [
                {
                  "system": "urn:oid:2.16.840.1.113883.4.6",
                  "value": "333222222"
                }
              ],
              "meta": {
                "source": "Xyz Organization"
              },
              "name": [
                {
                  "family": "Script",
                  "given": [
                    "Susan"
                  ],
                  "use": "usual"
                }
              ],
              "resourceType": "Practitioner"
            }
          },
          {
            "resource": {
              "active": true,
              "id": "b680371c03d28e5781ba968b35b58f83",
              "identifier": [
                {
                  "system": "http://hl7.org/fhir/sid/us-npi",
                  "value": "unkown"
                }
              ],
              "meta": {
                "source": "Xyz Organization"
              },
              "name": "People's Pharmacy",
              "resourceType": "Organization"
            }
          },
          {
            "resource": {
              "active": true,
              "id": "244458c0fcfcae6b488b2a01a365a26a",
              "identifier": [
                {
                  "system": "urn:oid:2.16.840.1.113883.4.6",
                  "value": "333222222"
                }
              ],
              "location": [
                {
                  "reference": "Location/2d94beb3d8f6873b9a51122560cc63a7"
                }
              ],
              "meta": {
                "source": "Xyz Organization"
              },
              "organization": {
                "reference": "Organization/b680371c03d28e5781ba968b35b58f83"
              },
              "practitioner": {
                "reference": "Practitioner/f05a99a8061e54f3eb6566b5873837a2"
              },
              "resourceType": "PractitionerRole",
              "telecom": [
                {
                  "system": "phone",
                  "value": "tel:+1(555)555-1016"
                }
              ]
            }
          },
          {
            "resource": {
              "dosageInstruction": [
                {
                  "doseAndRate": [
                    {
                      "doseQuantity": {
                        "value": 75
                      }
                    }
                  ]
                }
              ],
              "id": "775da3919ebffc1d64eeb1635384eb02",
              "identifier": [
                {
                  "system": "urn:oid:1.2.3.4.56789.1",
                  "value": "cb734647-fc99-424c-a864-7e3cda82e704"
                }
              ],
              "medicationReference": {
                "reference": "Medication/e64a538020f9f15fcd026b6a19e78c55"
              },
              "meta": {
                "source": "Xyz Organization"
              },
              "performer": [
                {
                  "actor": {
                    "reference": "PractitionerRole/244458c0fcfcae6b488b2a01a365a26a"
                  }
                }
              ],
              "quantity": {
                "value": 75
              },
              "resourceType": "MedicationDispense",
              "status": "completed",
              "whenHandedOver": "2008-08-15T14:50:00+08:00",
              "whenPrepared": "2008-08-15T14:50:00+08:00"
            }
          },
          {
            "resource": {
              "active": true,
              "id": "c03ac3f72ca637c8a847ca330319e583",
              "identifier": [
                {
                  "system": "http://hl7.org/fhir/sid/us-npi",
                  "value": "unkown"
                }
              ],
              "meta": {
                "source": "Xyz Organization"
              },
              "name": "unknown",
              "resourceType": "Organization"
            }
          },
          {
            "resource": {
              "code": {
                "coding": [
                  {
                    "code": "197380",
                    "display": "Atenolol 25 MG Oral Tablet",
                    "system": "urn:oid:2.16.840.1.113883.6.88"
                  }
                ]
              },
              "id": "c4284edb8067c7bcfb5fe6fab3e9b9ed",
              "manufacturer": {
                "reference": "Organization/c03ac3f72ca637c8a847ca330319e583"
              },
              "meta": {
                "source": "Xyz Organization"
              },
              "resourceType": "Medication"
            }
          },
          {
            "resource": {
              "category": [
                {
                  "coding": [
                    {
                      "code": "75321-0",
                      "display": "Clinical finding",
                      "system": "urn:oid:2.16.840.1.113883.6.1"
                    }
                  ]
                }
              ],
              "code": {
                "coding": [
                  {
                    "code": "38341003",
                    "display": "Hypertension",
                    "system": "urn:oid:2.16.840.1.113883.6.96"
                  }
                ]
              },
              "id": "aa53e687610d3507125c418ec16c52ee",
              "meta": {
                "source": "Xyz Organization"
              },
              "resourceType": "Condition",
              "subject": {
                "reference": "Patient/3fc334e44df0e55221efc90bbd5381eb"
              }
            }
          },
          {
            "resource": {
              "dosage": [
                {
                  "doseAndRate": [
                    {
                      "doseQuantity": {
                        "value": 2
                      }
                    }
                  ],
                  "route": {
                    "coding": [
                      {
                        "code": "C38216",
                        "display": "RESPIRATORY (INHALATION)",
                        "system": "urn:oid:2.16.840.1.113883.3.26.1.1"
                      }
                    ]
                  }
                }
              ],
              "id": "8c800b2d33bf68db9a1530b67b4121ea",
              "medicationReference": {
                "reference": "Medication/e64a538020f9f15fcd026b6a19e78c55"
              },
              "meta": {
                "source": "Xyz Organization"
              },
              "partOf": [
                {
                  "reference": "MedicationDispense/775da3919ebffc1d64eeb1635384eb02"
                }
              ],
              "reasonReference": [
                {
                  "reference": "Condition/e01ae253bf37de61b2500af35f8e2c5d"
                }
              ],
              "resourceType": "MedicationStatement",
              "status": "active",
              "subject": {
                "reference": "Patient/3fc334e44df0e55221efc90bbd5381eb"
              }
            }
          },
          {
            "resource": {
              "dosage": [
                {
                  "doseAndRate": [
                    {
                      "doseQuantity": {
                        "value": 1
                      }
                    }
                  ],
                  "route": {
                    "coding": [
                      {
                        "code": "C38288",
                        "display": "ORAL",
                        "system": "urn:oid:2.16.840.1.113883.3.26.1.1"
                      }
                    ]
                  }
                }
              ],
              "id": "b4fd5a1ff47987280340debe3c7008db",
              "medicationReference": {
                "reference": "Medication/c4284edb8067c7bcfb5fe6fab3e9b9ed"
              },
              "meta": {
                "source": "Xyz Organization"
              },
              "reasonReference": [
                {
                  "reference": "Condition/aa53e687610d3507125c418ec16c52ee"
                }
              ],
              "resourceType": "MedicationStatement",
              "status": "active",
              "subject": {
                "reference": "Patient/3fc334e44df0e55221efc90bbd5381eb"
              }
            }
          },
          {
            "resource": {
              "active": true,
              "id": "16afc6439b2892eea8292fb4a149ef44",
              "identifier": [
                {
                  "system": "http://hl7.org/fhir/sid/us-npi",
                  "value": "unkown"
                }
              ],
              "meta": {
                "source": "Xyz Organization"
              },
              "name": "Health LS - Immuno Inc.",
              "resourceType": "Organization"
            }
          },
          {
            "resource": {
              "address": {
                "city": "Portland",
                "country": "US",
                "line": [
                  "1007 Health Drive"
                ],
                "postalCode": "99123",
                "state": "OR"
              },
              "id": "1ca25231b6cfc0ca2c88c7b41f2ead35",
              "meta": {
                "source": "Xyz Organization"
              },
              "name": "unknown",
              "resourceType": "Location"
            }
          },
          {
            "resource": {
              "id": "abb5aceab5b2b2441ecd9c69e7e5be92",
              "identifier": [
                {
                  "system": "urn:oid:2.16.840.1.113883.19.5.9999.456",
                  "value": "2981824"
                }
              ],
              "meta": {
                "source": "Xyz Organization"
              },
              "name": [
                {
                  "family": "Hippocrates",
                  "given": [
                    "Harold"
                  ],
                  "use": "usual"
                }
              ],
              "resourceType": "Practitioner"
            }
          },
          {
            "resource": {
              "active": true,
              "address": [
                {
                  "city": "Portland",
                  "country": "US",
                  "line": [
                    "1007 Health Drive"
                  ],
                  "postalCode": "99123",
                  "state": "OR"
                }
              ],
              "id": "17bd92b8f0d0688548b9d05ab9e3ff92",
              "meta": {
                "source": "Xyz Organization"
              },
              "name": "Good Health Clinic",
              "resourceType": "Organization",
              "telecom": [
                {
                  "system": "phone",
                  "value": "tel: +1(555)555-1030"
                }
              ]
            }
          },
          {
            "resource": {
              "active": true,
              "id": "6ae296416fa1319b9762f55bb9cc272f",
              "identifier": [
                {
                  "system": "urn:oid:2.16.840.1.113883.19.5.9999.456",
                  "value": "2981824"
                }
              ],
              "location": [
                {
                  "reference": "Location/1ca25231b6cfc0ca2c88c7b41f2ead35"
                }
              ],
              "meta": {
                "source": "Xyz Organization"
              },
              "organization": {
                "reference": "Organization/17bd92b8f0d0688548b9d05ab9e3ff92"
              },
              "practitioner": {
                "reference": "Practitioner/abb5aceab5b2b2441ecd9c69e7e5be92"
              },
              "resourceType": "PractitionerRole",
              "telecom": [
                {
                  "system": "phone",
                  "value": "tel: +1(555)555-1030"
                }
              ]
            }
          },
          {
            "resource": {
              "active": true,
              "id": "0a0fff3a2a69279658c17b91d38fde6a",
              "meta": {
                "source": "Xyz Organization"
              },
              "name": "Good Health Clinic",
              "resourceType": "Organization",
              "telecom": [
                {
                  "system": "phone",
                  "value": "tel: +1(555)555-1030"
                }
              ]
            }
          },
          {
            "resource": {
              "active": true,
              "id": "1e3b6ec2f446805b088d7af98df72bdc",
              "identifier": [
                {
                  "system": "urn:oid:2.16.840.1.113883.19.5.9999.456",
                  "value": "2981824"
                }
              ],
              "location": [
                {
                  "reference": "Location/1ca25231b6cfc0ca2c88c7b41f2ead35"
                }
              ],
              "meta": {
                "source": "Xyz Organization"
              },
              "organization": {
                "reference": "Organization/0a0fff3a2a69279658c17b91d38fde6a"
              },
              "practitioner": {
                "reference": "Practitioner/abb5aceab5b2b2441ecd9c69e7e5be92"
              },
              "resourceType": "PractitionerRole",
              "telecom": [
                {
                  "system": "phone",
                  "value": "tel: +1(555)555-1030"
                }
              ]
            }
          },
          {
            "resource": {
              "doseQuantity": {
                "unit": "ug",
                "value": 50
              },
              "id": "bd357ac1a42dff3f5718d834521f13c3",
              "lotNumber": "1",
              "manufacturer": {
                "reference": "Organization/16afc6439b2892eea8292fb4a149ef44"
              },
              "meta": {
                "source": "Xyz Organization"
              },
              "occurrenceDateTime": "1999-11-01T00:00:00+11:00",
              "patient": {
                "reference": "Patient/3fc334e44df0e55221efc90bbd5381eb"
              },
              "performer": [
                {
                  "actor": {
                    "reference": "PractitionerRole/6ae296416fa1319b9762f55bb9cc272f"
                  }
                }
              ],
              "primarySource": true,
              "recorded": "1999-11-01T00:00:00+11:00",
              "resourceType": "Immunization",
              "route": {
                "coding": [
                  {
                    "code": "C28161",
                    "display": "Intramuscular injection",
                    "system": "urn:oid:2.16.840.1.113883.3.26.1.1"
                  }
                ]
              },
              "status": "completed",
              "vaccineCode": {
                "coding": [
                  {
                    "code": "88",
                    "display": "Influenza virus vaccine",
                    "system": "urn:oid:2.16.840.1.113883.6.59"
                  }
                ]
              }
            }
          },
          {
            "resource": {
              "doseQuantity": {
                "unit": "ug",
                "value": 50
              },
              "id": "bdbe470e02be0e0e452c8154591708c7",
              "lotNumber": "1",
              "manufacturer": {
                "reference": "Organization/16afc6439b2892eea8292fb4a149ef44"
              },
              "meta": {
                "source": "Xyz Organization"
              },
              "occurrenceDateTime": "1998-12-15T00:00:00+12:00",
              "patient": {
                "reference": "Patient/3fc334e44df0e55221efc90bbd5381eb"
              },
              "performer": [
                {
                  "actor": {
                    "reference": "PractitionerRole/6ae296416fa1319b9762f55bb9cc272f"
                  }
                }
              ],
              "primarySource": true,
              "recorded": "1998-12-15T00:00:00+12:00",
              "resourceType": "Immunization",
              "route": {
                "coding": [
                  {
                    "code": "C28161",
                    "display": "Intramuscular injection",
                    "system": "urn:oid:2.16.840.1.113883.3.26.1.1"
                  }
                ]
              },
              "status": "completed",
              "vaccineCode": {
                "coding": [
                  {
                    "code": "88",
                    "display": "Influenza virus vaccine",
                    "system": "urn:oid:2.16.840.1.113883.6.59"
                  }
                ]
              }
            }
          },
          {
            "resource": {
              "doseQuantity": {
                "unit": "ug",
                "value": 50
              },
              "id": "a8913ac33d4d256309fc821e669756ae",
              "lotNumber": "1",
              "manufacturer": {
                "reference": "Organization/16afc6439b2892eea8292fb4a149ef44"
              },
              "meta": {
                "source": "Xyz Organization"
              },
              "occurrenceDateTime": "1998-12-15T00:00:00+12:00",
              "patient": {
                "reference": "Patient/3fc334e44df0e55221efc90bbd5381eb"
              },
              "performer": [
                {
                  "actor": {
                    "reference": "PractitionerRole/6ae296416fa1319b9762f55bb9cc272f"
                  }
                }
              ],
              "primarySource": true,
              "recorded": "1998-12-15T00:00:00+12:00",
              "resourceType": "Immunization",
              "route": {
                "coding": [
                  {
                    "code": "C28161",
                    "display": "Intramuscular injection",
                    "system": "urn:oid:2.16.840.1.113883.3.26.1.1"
                  }
                ]
              },
              "status": "completed",
              "vaccineCode": {
                "coding": [
                  {
                    "code": "33",
                    "display": "Pneumococcal polysaccharide vaccine",
                    "system": "urn:oid:2.16.840.1.113883.6.59"
                  }
                ]
              }
            }
          },
          {
            "resource": {
              "doseQuantity": {
                "unit": "ug",
                "value": 50
              },
              "id": "e9cd09313c230545976755244201fbc3",
              "lotNumber": "1",
              "manufacturer": {
                "reference": "Organization/16afc6439b2892eea8292fb4a149ef44"
              },
              "meta": {
                "source": "Xyz Organization"
              },
              "occurrenceDateTime": "1998-12-15T00:00:00+12:00",
              "patient": {
                "reference": "Patient/3fc334e44df0e55221efc90bbd5381eb"
              },
              "performer": [
                {
                  "actor": {
                    "reference": "PractitionerRole/1e3b6ec2f446805b088d7af98df72bdc"
                  }
                }
              ],
              "primarySource": true,
              "recorded": "1998-12-15T00:00:00+12:00",
              "resourceType": "Immunization",
              "route": {
                "coding": [
                  {
                    "code": "C28161",
                    "display": "Intramuscular injection",
                    "system": "urn:oid:2.16.840.1.113883.3.26.1.1"
                  }
                ]
              },
              "status": "completed",
              "statusReason": {
                "coding": [
                  {
                    "code": "PATOBJ",
                    "display": "Patient Objection",
                    "system": "urn:oid:2.16.840.1.113883.5.8"
                  }
                ]
              },
              "vaccineCode": {
                "coding": [
                  {
                    "code": "103",
                    "display": "Tetanus and diphtheria toxoids - preservative free",
                    "system": "urn:oid:2.16.840.1.113883.6.59"
                  }
                ]
              }
            }
          },
          {
            "resource": {
              "id": "3bed6938bf0b5fc5d1b410e04106d235",
              "lotNumber": "1",
              "manufacturer": {
                "reference": "Organization/c03ac3f72ca637c8a847ca330319e583"
              },
              "meta": {
                "source": "Xyz Organization"
              },
              "occurrenceDateTime": "2013-08-01T00:00:00+08:00",
              "patient": {
                "reference": "Patient/3fc334e44df0e55221efc90bbd5381eb"
              },
              "performer": [
                {
                  "actor": {
                    "reference": "PractitionerRole/6ae296416fa1319b9762f55bb9cc272f"
                  }
                }
              ],
              "primarySource": true,
              "recorded": "2013-08-01T00:00:00+08:00",
              "resourceType": "Immunization",
              "route": {
                "coding": [
                  {
                    "code": "C28161",
                    "display": "Intramuscular injection",
                    "system": "urn:oid:2.16.840.1.113883.3.26.1.1"
                  }
                ]
              },
              "status": "completed",
              "vaccineCode": {
                "coding": [
                  {
                    "code": "45",
                    "display": "Hepatitis B vaccine",
                    "system": "urn:oid:2.16.840.1.113883.6.59"
                  }
                ]
              }
            }
          },
          {
            "resource": {
              "category": [
                "environment"
              ],
              "clinicalStatus": {
                "coding": [
                  {
                    "code": "active",
                    "system": "http://terminology.hl7.org/CodeSystem/allergyintolerance-clinical"
                  }
                ]
              },
              "code": {
                "coding": [
                  {
                    "code": "unknown"
                  }
                ]
              },
              "id": "3f91f0965fd0677dccd16a3db3fc8261",
              "meta": {
                "source": "Xyz Organization"
              },
              "onsetPeriod": {
                "start": "2008-05-01T11:45:00+05:00"
              },
              "patient": {
                "reference": "Patient/3fc334e44df0e55221efc90bbd5381eb"
              },
              "reaction": [
                {
                  "manifestation": [
                    {
                      "coding": [
                        {
                          "code": "422587007",
                          "display": "Nausea",
                          "system": "urn:oid:2.16.840.1.113883.6.96"
                        }
                      ]
                    }
                  ],
                  "severity": "mild",
                  "substance": {
                    "coding": [
                      {
                        "code": "70618",
                        "display": "Penicillin",
                        "system": "urn:oid:2.16.840.1.113883.6.88"
                      }
                    ]
                  }
                }
              ],
              "recorder": {
                "reference": "PractitionerRole/4130993393eea4d419db42d90ca550a2"
              },
              "resourceType": "AllergyIntolerance"
            }
          },
          {
            "resource": {
              "category": [
                "environment"
              ],
              "clinicalStatus": {
                "coding": [
                  {
                    "code": "active",
                    "system": "http://terminology.hl7.org/CodeSystem/allergyintolerance-clinical"
                  }
                ]
              },
              "code": {
                "coding": [
                  {
                    "code": "unknown"
                  }
                ]
              },
              "id": "5983a5553929deb53a6aede9a3d27d90",
              "meta": {
                "source": "Xyz Organization"
              },
              "onsetPeriod": {
                "start": "2008-05-01T11:45:00+05:00"
              },
              "patient": {
                "reference": "Patient/3fc334e44df0e55221efc90bbd5381eb"
              },
              "reaction": [
                {
                  "manifestation": [
                    {
                      "coding": [
                        {
                          "code": "56018004",
                          "display": "Wheezing",
                          "system": "urn:oid:2.16.840.1.113883.6.96"
                        }
                      ]
                    }
                  ],
                  "severity": "moderate",
                  "substance": {
                    "coding": [
                      {
                        "code": "2670",
                        "display": "Codeine",
                        "system": "urn:oid:2.16.840.1.113883.6.88"
                      }
                    ]
                  }
                }
              ],
              "recorder": {
                "reference": "PractitionerRole/4130993393eea4d419db42d90ca550a2"
              },
              "resourceType": "AllergyIntolerance"
            }
          }
        ],
        "id": "6f9d682f767770943a158805c4058e71",
        "identifier": {
          "system": "urn:oid:2.16.840.1.113883.19.5.99999.1",
          "value": "TT988"
        },
        "meta": {
          "source": "Xyz Organization"
        },
        "resourceType": "Bundle",
        "timestamp": "2008-08-15T10:30:00.158815Z",
        "type": "document"
      }
    },
    {
      "request": {
        "method": "PUT",
        "url": "Composition/77401de8dbcce1374b0cba96842843b3"
      },
      "resource": {
        "attester": [
          {
            "mode": "professional",
            "party": {
              "reference": "PractitionerRole/b00f3e5a01e26589922511db17b26be6"
            }
          },
          {
            "mode": "legal",
            "party": {
              "reference": "PractitionerRole/b00f3e5a01e26589922511db17b26be6"
            }
          }
        ],
        "author": [
          {
            "reference": "PractitionerRole/b00f3e5a01e26589922511db17b26be6"
          }
        ],
        "confidentiality": "N",
        "custodian": {
          "reference": "Organization/1e6097251479475cfa73ec0ea0b78d4f"
        },
        "date": "2008-08-15",
        "id": "77401de8dbcce1374b0cba96842843b3",
        "identifier": {
          "system": "urn:oid:2.16.840.1.113883.19.5.99999.1",
          "value": "TT988"
        },
        "meta": {
          "source": "Xyz Organization"
        },
        "resourceType": "Composition",
        "section": [
          {
            "code": {
              "coding": [
                {
                  "code": "10157-6",
                  "system": "urn:oid:2.16.840.1.113883.6.1"
                }
              ]
            },
            "entry": [
              {
                "reference": "FamilyMemberHistory/47da0271f1ff9ba58b338e5dbfab7ff0"
              }
            ],
            "title": "FAMILY HISTORY"
          },
          {
            "code": {
              "coding": [
                {
                  "code": "8716-3",
                  "display": "VITAL SIGNS",
                  "system": "urn:oid:2.16.840.1.113883.6.1"
                }
              ]
            },
            "entry": [
              {
                "reference": "Observation/a2347a7337f90320df5e4706131dc1aa"
              },
              {
                "reference": "Observation/0f959e84448090abb9c5d8ba609b2dcd"
              },
              {
                "reference": "Observation/64097ab545d310bb908e517c4e04b47f"
              },
              {
                "reference": "Observation/85f8564bbcc38ae683fd687c170fa8e7"
              },
              {
                "reference": "Observation/bbc8c9ab88bce728ce367163525b9f41"
              },
              {
                "reference": "Observation/45adab11f421af1b06770e6ae45bb95f"
              },
              {
                "reference": "Observation/1f4cb8ca360336830e0156662f1598e8"
              },
              {
                "reference": "Observation/02c559cd6c40d61fac8e431a38791b9c"
              }
            ],
            "title": "VITAL SIGNS"
          },
          {
            "code": {
              "coding": [
                {
                  "code": "29762-2",
                  "display": "Social History",
                  "system": "urn:oid:2.16.840.1.113883.6.1"
                }
              ]
            },
            "entry": [
              {
                "reference": "Observation/c11fcaa3463d67df0720a4fb45aa1d16"
              },
              {
                "reference": "Observation/1535036f69b6b5d6a2c0e0eaa5ba17d0"
              },
              {
                "reference": "Observation/7300a74905b192f1c94e9f8c33eb0316"
              }
            ],
            "title": "SOCIAL HISTORY"
          },
          {
            "code": {
              "coding": [
                {
                  "code": "46240-8",
                  "display": "History of encounters",
                  "system": "urn:oid:2.16.840.1.113883.6.1"
                }
              ]
            },
            "entry": [
              {
                "reference": "Encounter/edd1b0996ce9d920c7f747d242b65839"
              }
            ],
            "title": "ENCOUNTERS"
          },
          {
            "code": {
              "coding": [
                {
                  "code": "47420-5",
                  "display": "Functional Status",
                  "system": "urn:oid:2.16.840.1.113883.6.1"
                }
              ]
            },
            "entry": [
              {
                "reference": "Observation/0d562c2ef3daafe2c2431ad077fc5504"
              },
              {
                "reference": "Observation/30d234a5ab4ee284c3d23b40c200cc65"
              }
            ],
            "title": "FUNCTIONAL STATUS"
          },
          {
            "code": {
              "coding": [
                {
                  "code": "11450-4",
                  "display": "PROBLEM LIST",
                  "system": "urn:oid:2.16.840.1.113883.6.1"
                }
              ]
            },
            "entry": [
              {
                "reference": "Condition/25b79e26d06497c6f4c051d2fc0ce867"
              },
              {
                "reference": "Condition/402bbfdfca8d7fbdb5d0c21eeae97fec"
              },
              {
                "reference": "Condition/c3b329670d0e4adb56ca8887c2f8f783"
              },
              {
                "reference": "Condition/a00564402284b37022721646022cc6b4"
              }
            ],
            "title": "PROBLEMS"
          },
          {
            "code": {
              "coding": [
                {
                  "code": "47519-4",
                  "display": "HISTORY OF PROCEDURES",
                  "system": "urn:oid:2.16.840.1.113883.6.1"
                }
              ]
            },
            "entry": [
              {
                "reference": "Procedure/0cdaadf399bcb13d0943e4b9189088d5"
              }
            ],
            "title": "PROCEDURES"
          },
          {
            "code": {
              "coding": [
                {
                  "code": "30954-2",
                  "display": "RESULTS",
                  "system": "urn:oid:2.16.840.1.113883.6.1"
                }
              ]
            },
            "entry": [
              {
                "reference": "DiagnosticReport/659c768b95b91d9898a9237dda3d6d5e"
              },
              {
                "reference": "DiagnosticReport/3f3bb23bb2e5f5fffdd6f2c0ff426220"
              }
            ],
            "title": "RESULTS"
          },
          {
            "code": {
              "coding": [
                {
                  "code": "46264-8",
                  "system": "urn:oid:2.16.840.1.113883.6.1"
                }
              ]
            },
            "entry": [
              {
                "reference": "Device/e1a2792d2aeccedea1bc5d9e9c3650be"
              },
              {
                "reference": "Procedure/5e755991db93ad0d8adad85129ca6c62"
              },
              {
                "reference": "Device/bbc9f446c8f2a1384235fd1691322910"
              },
              {
                "reference": "Device/8420e1eff2a3c0bd2cbcd43b4b2faa7f"
              }
            ],
            "title": "MEDICAL EQUIPMENT"
          },
          {
            "code": {
              "coding": [
                {
                  "code": "10160-0",
                  "display": "HISTORY OF MEDICATION USE",
                  "system": "urn:oid:2.16.840.1.113883.6.1"
                }
              ]
            },
            "entry": [
              {
                "reference": "MedicationStatement/8c800b2d33bf68db9a1530b67b4121ea"
              },
              {
                "reference": "MedicationStatement/b4fd5a1ff47987280340debe3c7008db"
              }
            ],
            "title": "MEDICATIONS"
          },
          {
            "code": {
              "coding": [
                {
                  "code": "11369-6",
                  "display": "History of immunizations",
                  "system": "urn:oid:2.16.840.1.113883.6.1"
                }
              ]
            },
            "entry": [
              {
                "reference": "Immunization/bd357ac1a42dff3f5718d834521f13c3"
              },
              {
                "reference": "Immunization/bdbe470e02be0e0e452c8154591708c7"
              },
              {
                "reference": "Immunization/a8913ac33d4d256309fc821e669756ae"
              },
              {
                "reference": "Immunization/e9cd09313c230545976755244201fbc3"
              },
              {
                "reference": "Immunization/3bed6938bf0b5fc5d1b410e04106d235"
              }
            ],
            "title": "IMMUNIZATIONS"
          },
          {
            "code": {
              "coding": [
                {
                  "code": "48765-2",
                  "system": "urn:oid:2.16.840.1.113883.6.1"
                }
              ]
            },
            "entry": [
              {
                "reference": "AllergyIntolerance/3f91f0965fd0677dccd16a3db3fc8261"
              },
              {
                "reference": "AllergyIntolerance/5983a5553929deb53a6aede9a3d27d90"
              }
            ],
            "title": "ALLERGIES AND ADVERSE REACTIONS"
          }
        ],
        "status": "preliminary",
        "subject": {
          "reference": "Patient/3fc334e44df0e55221efc90bbd5381eb"
        },
        "title": "Patient Chart Summary",
        "type": {
          "coding": [
            {
              "code": "34133-9",
              "display": "Summarization of Episode Note",
              "system": "urn:oid:2.16.840.1.113883.6.1"
            }
          ]
        }
      }
    },
    {
      "request": {
        "method": "PUT",
        "url": "Location/770428b7d14d18e2cea60c54e4586e1f"
      },
      "resource": {
        "address": {
          "city": "Portland",
          "country": "US",
          "line": [
            "1004 Healthcare Drive"
          ],
          "postalCode": "99123",
          "state": "OR"
        },
        "id": "770428b7d14d18e2cea60c54e4586e1f",
        "meta": {
          "source": "Xyz Organization"
        },
        "name": "unknown",
        "resourceType": "Location"
      }
    },
    {
      "request": {
        "method": "PUT",
        "url": "Practitioner/5ddb512b26a77a91943c0a73edc265a9"
      },
      "resource": {
        "id": "5ddb512b26a77a91943c0a73edc265a9",
        "identifier": [
          {
            "system": "urn:oid:2.16.840.1.113883.4.6",
            "value": "5555555555"
          }
        ],
        "meta": {
          "source": "Xyz Organization"
        },
        "name": [
          {
            "family": "Primary",
            "given": [
              "Patricia"
            ],
            "use": "usual"
          }
        ],
        "resourceType": "Practitioner"
      }
    },
    {
      "request": {
        "method": "PUT",
        "url": "Organization/9eb867e38c4b0ab4baf8b62b9caab2f8"
      },
      "resource": {
        "active": true,
        "id": "9eb867e38c4b0ab4baf8b62b9caab2f8",
        "meta": {
          "source": "Xyz Organization"
        },
        "name": "unknown",
        "resourceType": "Organization"
      }
    },
    {
      "request": {
        "method": "PUT",
        "url": "Organization/4b982706ac548d965f9c0c01acef09ef"
      },
      "resource": {
        "active": true,
        "address": [
          {
            "city": "Portland",
            "country": "US",
            "line": [
              "1004 Health Drive"
            ],
            "postalCode": "99123",
            "state": "OR"
          }
        ],
        "id": "4b982706ac548d965f9c0c01acef09ef",
        "identifier": [
          {
            "system": "urn:oid:1.2.16.840.1.113883.4.6",
            "value": "219BX"
          }
        ],
        "meta": {
          "source": "Xyz Organization"
        },
        "name": "The DoctorsTogether Physician Group",
        "resourceType": "Organization",
        "telecom": [
          {
            "system": "phone",
            "value": "tel: +1(555)555-5000"
          }
        ]
      }
    },
    {
      "request": {
        "method": "PUT",
        "url": "Organization/e0fbfb9aef667fcec9ebba1a68c11bc5"
      },
      "resource": {
        "active": true,
        "address": [
          {
            "city": "Portland",
            "country": "US",
            "line": [
              "1007 Health Drive"
            ],
            "postalCode": "99123",
            "state": "OR"
          }
        ],
        "id": "e0fbfb9aef667fcec9ebba1a68c11bc5",
        "identifier": [
          {
            "system": "urn:oid:2.16.840.1.113883.4.6",
            "value": "219BX"
          }
        ],
        "meta": {
          "source": "Xyz Organization"
        },
        "name": "The DoctorsTogether Physician Group",
        "resourceType": "Organization",
        "telecom": [
          {
            "system": "phone",
            "value": "tel: +1(555)555-5000"
          }
        ]
      }
    },
    {
      "request": {
        "method": "PUT",
        "url": "PractitionerRole/09f286fdb40e9e67ea795e45b7e38562"
      },
      "resource": {
        "active": true,
        "code": [
          {
            "coding": [
              {
                "code": "207QA0505X",
                "display": "Adult Medicine",
                "system": "urn:oid:2.16.840.1.113883.6.101"
              }
            ]
          }
        ],
        "id": "09f286fdb40e9e67ea795e45b7e38562",
        "identifier": [
          {
            "system": "urn:oid:2.16.840.1.113883.4.6",
            "value": "5555555555"
          }
        ],
        "location": [
          {
            "reference": "Location/770428b7d14d18e2cea60c54e4586e1f"
          }
        ],
        "meta": {
          "source": "Xyz Organization"
        },
        "organization": {
          "reference": "Organization/4b982706ac548d965f9c0c01acef09ef"
        },
        "practitioner": {
          "reference": "Practitioner/5ddb512b26a77a91943c0a73edc265a9"
        },
        "resourceType": "PractitionerRole",
        "telecom": [
          {
            "system": "phone",
            "value": "tel:+1(555)555-1004"
          }
        ]
      }
    },
    {
      "request": {
        "method": "PUT",
        "url": "Patient/3fc334e44df0e55221efc90bbd5381eb"
      },
      "resource": {
        "address": [
          {
            "city": "Beaverton",
            "country": "US",
            "line": [
              "2222 Home Street"
            ],
            "postalCode": "97867",
            "state": "OR",
            "use": "home"
          }
        ],
        "birthDate": "1975-05-01",
        "communication": [
          {
            "language": {
              "coding": [
                {
                  "code": "en"
                }
              ]
            },
            "preferred": true
          }
        ],
        "contact": [
          {
            "address": {
              "city": "Beaverton",
              "country": "US",
              "line": [
                "2222 Home Street"
              ],
              "postalCode": "97867",
              "state": "OR",
              "use": "home"
            },
            "name": {
              "family": "Betterhalf",
              "given": [
                "Boris"
              ],
              "use": "usual"
            },
            "relationship": [
              {
                "coding": [
                  {
                    "code": "POWATT",
                    "display": "Power of Attorney",
                    "system": "urn:oid:2.16.840.1.113883.1.11.19830"
                  }
                ]
              }
            ],
            "telecom": [
              {
                "system": "phone",
                "value": "tel:+1(555)555-2008"
              }
            ]
          }
        ],
        "extension": [
          {
            "extension": [
              {
                "url": "ombCategory",
                "valueCoding": {
                  "code": "2106-3",
                  "display": "White",
                  "system": "urn:oid:2.16.840.1.113883.6.238"
                }
              },
              {
                "url": "text"
              }
            ],
            "url": "http://hl7.org/fhir/us/core/StructureDefinition/us-core-race"
          },
          {
            "extension": [
              {
                "url": "ombCategory",
                "valueCoding": {
                  "code": "2186-5",
                  "display": "Not Hispanic or Latino",
                  "system": "urn:oid:2.16.840.1.113883.6.238"
                }
              },
              {
                "url": "text"
              }
            ],
            "url": "http://hl7.org/fhir/us/core/StructureDefinition/us-core-ethnicity"
          },
          {
            "extension": [
              {
                "url": "http://hl7.org/fhir/StructureDefinition/patient-religion",
                "valueCodeableConcept": {
                  "coding": [
                    {
                      "code": "1013",
                      "display": "Christian (non-Catholic, non-specific)",
                      "system": "urn:oid:2.16.840.1.113883.5.1076"
                    }
                  ]
                }
              }
            ],
            "url": "http://hl7.org/fhir/StructureDefinition/patient-religion"
          },
          {
            "extension": [
              {
                "url": "http://hl7.org/fhir/StructureDefinition/patient-birthPlace",
                "valueAddress": {
                  "city": "Beaverton",
                  "country": "US",
                  "line": [
                    "4444 Home Street"
                  ],
                  "postalCode": "97867",
                  "state": "OR"
                }
              }
            ],
            "url": "http://hl7.org/fhir/StructureDefinition/patient-birthPlace"
          }
        ],
        "gender": "female",
        "generalPractitioner": [
          {
            "reference": "PractitionerRole/09f286fdb40e9e67ea795e45b7e38562"
          }
        ],
        "id": "3fc334e44df0e55221efc90bbd5381eb",
        "identifier": [
          {
            "system": "urn:oid:2.16.840.1.113883.4.1",
            "value": "444222222"
          }
        ],
        "managingOrganization": {
          "reference": "Organization/e0fbfb9aef667fcec9ebba1a68c11bc5"
        },
        "maritalStatus": {
          "coding": [
            {
              "code": "M",
              "display": "Married",
              "system": "urn:oid:2.16.840.1.113883.5.2"
            }
          ]
        },
        "meta": {
          "source": "Xyz Organization"
        },
        "name": [
          {
            "given": [
              "Eve"
            ],
            "use": "usual"
          },
          {
            "given": [
              "Eve"
            ],
            "use": "usual"
          }
        ],
        "resourceType": "Patient",
        "telecom": [
          {
            "system": "phone",
            "value": "tel:+1(555)555-2003"
          }
        ]
      }
    },
    {
      "request": {
        "method": "PUT",
        "url": "Organization/1e6097251479475cfa73ec0ea0b78d4f"
      },
      "resource": {
        "active": true,
        "address": [
          {
            "city": "Portland",
            "country": "US",
            "line": [
              "1009 Healthcare Drive"
            ],
            "postalCode": "99123",
            "state": "OR"
          }
        ],
        "id": "1e6097251479475cfa73ec0ea0b78d4f",
        "identifier": [
          {
            "system": "urn:oid:2.16.840.1.113883.4.6",
            "value": "321CX"
          }
        ],
        "meta": {
          "source": "Xyz Organization"
        },
        "name": "Good Health HIE",
        "resourceType": "Organization",
        "telecom": [
          {
            "system": "phone",
            "value": "tel:+1(555)555-1009"
          }
        ]
      }
    },
    {
      "request": {
        "method": "PUT",
        "url": "PractitionerRole/b00f3e5a01e26589922511db17b26be6"
      },
      "resource": {
        "active": true,
        "code": [
          {
            "coding": [
              {
                "code": "207QA0505X",
                "display": "Adult Medicine",
                "system": "urn:oid:2.16.840.1.113883.6.101"
              }
            ]
          }
        ],
        "id": "b00f3e5a01e26589922511db17b26be6",
        "identifier": [
          {
            "system": "urn:oid:2.16.840.1.113883.4.6",
            "value": "5555555555"
          }
        ],
        "location": [
          {
            "reference": "Location/770428b7d14d18e2cea60c54e4586e1f"
          }
        ],
        "meta": {
          "source": "Xyz Organization"
        },
        "organization": {
          "reference": "Organization/9eb867e38c4b0ab4baf8b62b9caab2f8"
        },
        "practitioner": {
          "reference": "Practitioner/5ddb512b26a77a91943c0a73edc265a9"
        },
        "resourceType": "PractitionerRole",
        "telecom": [
          {
            "system": "phone",
            "value": "tel:+1(555)555-1004"
          }
        ]
      }
    },
    {
      "request": {
        "method": "PUT",
        "url": "FamilyMemberHistory/47da0271f1ff9ba58b338e5dbfab7ff0"
      },
      "resource": {
        "bornDate": "1910-01-01",
        "condition": [
          {
            "code": {
              "coding": [
                {
                  "code": "22298006",
                  "display": "Myocardial infarction",
                  "system": "urn:oid:2.16.840.1.113883.6.96"
                }
              ]
            },
            "contributedToDeath": true,
            "onsetAge": {
              "code": "a",
              "system": "http://unitsofmeasure.org",
              "unit": "yr",
              "value": 57
            },
            "outcome": {
              "coding": [
                {
                  "code": "419099009",
                  "display": "Dead",
                  "system": "urn:oid:2.16.840.1.113883.6.96"
                }
              ]
            }
          },
          {
            "code": {
              "coding": [
                {
                  "code": "44054006",
                  "display": "Diabetes mellitus type 2",
                  "system": "urn:oid:2.16.840.1.113883.6.96"
                }
              ]
            },
            "contributedToDeath": false,
            "onsetAge": {
              "code": "a",
              "system": "http://unitsofmeasure.org",
              "unit": "yr",
              "value": 40
            }
          }
        ],
        "deceasedBoolean": true,
        "id": "47da0271f1ff9ba58b338e5dbfab7ff0",
        "meta": {
          "source": "Xyz Organization"
        },
        "patient": {
          "reference": "Patient/3fc334e44df0e55221efc90bbd5381eb"
        },
        "relationship": {
          "coding": [
            {
              "code": "FTH",
              "display": "Father",
              "system": "urn:oid:2.16.840.1.113883.5.111"
            }
          ]
        },
        "resourceType": "FamilyMemberHistory",
        "sex": {
          "coding": [
            {
              "code": "M",
              "display": "Male",
              "system": "urn:oid:2.16.840.1.113883.1.11.1"
            }
          ]
        },
        "status": "completed"
      }
    },
    {
      "request": {
        "method": "PUT",
        "url": "Practitioner/dc282e8eaa9bd43005b04741d234fd7c"
      },
      "resource": {
        "id": "dc282e8eaa9bd43005b04741d234fd7c",
        "identifier": [
          {
            "system": "http://hl7.org/fhir/sid/us-npi",
            "value": "unkown"
          }
        ],
        "meta": {
          "source": "Xyz Organization"
        },
        "name": [
          {
            "family": "unkown"
          }
        ],
        "resourceType": "Practitioner"
      }
    },
    {
      "request": {
        "method": "PUT",
        "url": "PractitionerRole/4130993393eea4d419db42d90ca550a2"
      },
      "resource": {
        "active": true,
        "code": [
          {
            "coding": [
              {
                "code": "207QA0505X",
                "display": "Adult Medicine",
                "system": "urn:oid:2.16.840.1.113883.6.101"
              }
            ]
          }
        ],
        "id": "4130993393eea4d419db42d90ca550a2",
        "identifier": [
          {
            "system": "urn:oid:2.16.840.1.113883.4.6",
            "value": "555555555"
          }
        ],
        "meta": {
          "source": "Xyz Organization"
        },
        "organization": {
          "reference": "Organization/9eb867e38c4b0ab4baf8b62b9caab2f8"
        },
        "practitioner": {
          "reference": "Practitioner/dc282e8eaa9bd43005b04741d234fd7c"
        },
        "resourceType": "PractitionerRole"
      }
    },
    {
      "request": {
        "method": "PUT",
        "url": "Observation/a2347a7337f90320df5e4706131dc1aa"
      },
      "resource": {
        "category": [
          {
            "coding": [
              {
                "code": "vital-signs",
                "system": "http://terminology.hl7.org/CodeSystem/observation-category"
              }
            ]
          }
        ],
        "code": {
          "coding": [
            {
              "code": "8302-2",
              "display": "Height",
              "system": "urn:oid:2.16.840.1.113883.6.1"
            }
          ]
        },
        "component": [
          {
            "code": {
              "coding": [
                {
                  "code": "8302-2",
                  "display": "Height",
                  "system": "urn:oid:2.16.840.1.113883.6.1"
                }
              ]
            },
            "valueQuantity": {
              "unit": "cm",
              "value": 177
            }
          }
        ],
        "effectiveDateTime": "2012-09-10T00:00:00+09:00",
        "id": "a2347a7337f90320df5e4706131dc1aa",
        "interpretation": [
          {
            "coding": [
              {
                "code": "N",
                "system": "urn:oid:2.16.840.1.113883.5.83"
              }
            ]
          }
        ],
        "issued": "2008-09-10T11:45:00.109910Z",
        "meta": {
          "source": "Xyz Organization"
        },
        "performer": [
          {
            "reference": "PractitionerRole/4130993393eea4d419db42d90ca550a2"
          }
        ],
        "resourceType": "Observation",
        "status": "final",
        "subject": {
          "reference": "Patient/3fc334e44df0e55221efc90bbd5381eb"
        }
      }
    },
    {
      "request": {
        "method": "PUT",
        "url": "Observation/0f959e84448090abb9c5d8ba609b2dcd"
      },
      "resource": {
        "category": [
          {
            "coding": [
              {
                "code": "vital-signs",
                "system": "http://terminology.hl7.org/CodeSystem/observation-category"
              }
            ]
          }
        ],
        "code": {
          "coding": [
            {
              "code": "3141-9",
              "display": "Patient Body Weight - Measured",
              "system": "urn:oid:2.16.840.1.113883.6.1"
            }
          ]
        },
        "component": [
          {
            "code": {
              "coding": [
                {
                  "code": "3141-9",
                  "display": "Patient Body Weight - Measured",
                  "system": "urn:oid:2.16.840.1.113883.6.1"
                }
              ]
            },
            "valueQuantity": {
              "unit": "kg",
              "value": 86
            }
          }
        ],
        "effectiveDateTime": "2012-09-10T00:00:00+09:00",
        "id": "0f959e84448090abb9c5d8ba609b2dcd",
        "interpretation": [
          {
            "coding": [
              {
                "code": "N",
                "system": "urn:oid:2.16.840.1.113883.5.83"
              }
            ]
          }
        ],
        "issued": "2008-09-10T11:45:00.109910Z",
        "meta": {
          "source": "Xyz Organization"
        },
        "performer": [
          {
            "reference": "PractitionerRole/4130993393eea4d419db42d90ca550a2"
          }
        ],
        "resourceType": "Observation",
        "status": "final",
        "subject": {
          "reference": "Patient/3fc334e44df0e55221efc90bbd5381eb"
        }
      }
    },
    {
      "request": {
        "method": "PUT",
        "url": "Observation/64097ab545d310bb908e517c4e04b47f"
      },
      "resource": {
        "category": [
          {
            "coding": [
              {
                "code": "vital-signs",
                "system": "http://terminology.hl7.org/CodeSystem/observation-category"
              }
            ]
          }
        ],
        "code": {
          "coding": [
            {
              "code": "8480-6",
              "display": "Intravascular Systolic",
              "system": "urn:oid:2.16.840.1.113883.6.1"
            }
          ]
        },
        "component": [
          {
            "code": {
              "coding": [
                {
                  "code": "8480-6",
                  "display": "Intravascular Systolic",
                  "system": "urn:oid:2.16.840.1.113883.6.1"
                }
              ]
            },
            "valueQuantity": {
              "unit": "mm[Hg]",
              "value": 132
            }
          }
        ],
        "effectiveDateTime": "2012-09-10T00:00:00+09:00",
        "id": "64097ab545d310bb908e517c4e04b47f",
        "interpretation": [
          {
            "coding": [
              {
                "code": "N",
                "system": "urn:oid:2.16.840.1.113883.5.83"
              }
            ]
          }
        ],
        "issued": "2008-09-10T11:45:00.109910Z",
        "meta": {
          "source": "Xyz Organization"
        },
        "performer": [
          {
            "reference": "PractitionerRole/4130993393eea4d419db42d90ca550a2"
          }
        ],
        "resourceType": "Observation",
        "status": "final",
        "subject": {
          "reference": "Patient/3fc334e44df0e55221efc90bbd5381eb"
        }
      }
    },
    {
      "request": {
        "method": "PUT",
        "url": "Observation/85f8564bbcc38ae683fd687c170fa8e7"
      },
      "resource": {
        "category": [
          {
            "coding": [
              {
                "code": "vital-signs",
                "system": "http://terminology.hl7.org/CodeSystem/observation-category"
              }
            ]
          }
        ],
        "code": {
          "coding": [
            {
              "code": "8462-4",
              "display": "BP Diastolic",
              "system": "urn:oid:2.16.840.1.113883.6.1"
            }
          ]
        },
        "component": [
          {
            "code": {
              "coding": [
                {
                  "code": "8462-4",
                  "display": "BP Diastolic",
                  "system": "urn:oid:2.16.840.1.113883.6.1"
                }
              ]
            },
            "valueQuantity": {
              "unit": "mm[Hg]",
              "value": 88
            }
          }
        ],
        "effectiveDateTime": "2012-09-10T00:00:00+09:00",
        "id": "85f8564bbcc38ae683fd687c170fa8e7",
        "interpretation": [
          {
            "coding": [
              {
                "code": "N",
                "system": "urn:oid:2.16.840.1.113883.5.83"
              }
            ]
          }
        ],
        "issued": "2008-09-01T09:15:00.1991Z",
        "meta": {
          "source": "Xyz Organization"
        },
        "performer": [
          {
            "reference": "PractitionerRole/4130993393eea4d419db42d90ca550a2"
          }
        ],
        "resourceType": "Observation",
        "status": "final",
        "subject": {
          "reference": "Patient/3fc334e44df0e55221efc90bbd5381eb"
        }
      }
    },
    {
      "request": {
        "method": "PUT",
        "url": "Observation/bbc8c9ab88bce728ce367163525b9f41"
      },
      "resource": {
        "category": [
          {
            "coding": [
              {
                "code": "vital-signs",
                "system": "http://terminology.hl7.org/CodeSystem/observation-category"
              }
            ]
          }
        ],
        "code": {
          "coding": [
            {
              "code": "8302-2",
              "display": "Height",
              "system": "urn:oid:2.16.840.1.113883.6.1"
            }
          ]
        },
        "component": [
          {
            "code": {
              "coding": [
                {
                  "code": "8302-2",
                  "display": "Height",
                  "system": "urn:oid:2.16.840.1.113883.6.1"
                }
              ]
            },
            "valueQuantity": {
              "unit": "cm",
              "value": 177
            }
          }
        ],
        "effectiveDateTime": "2011-09-01T00:00:00+09:00",
        "id": "bbc8c9ab88bce728ce367163525b9f41",
        "interpretation": [
          {
            "coding": [
              {
                "code": "N",
                "system": "urn:oid:2.16.840.1.113883.5.83"
              }
            ]
          }
        ],
        "issued": "2008-09-01T09:15:00.1991Z",
        "meta": {
          "source": "Xyz Organization"
        },
        "performer": [
          {
            "reference": "PractitionerRole/4130993393eea4d419db42d90ca550a2"
          }
        ],
        "resourceType": "Observation",
        "status": "final",
        "subject": {
          "reference": "Patient/3fc334e44df0e55221efc90bbd5381eb"
        }
      }
    },
    {
      "request": {
        "method": "PUT",
        "url": "Observation/45adab11f421af1b06770e6ae45bb95f"
      },
      "resource": {
        "category": [
          {
            "coding": [
              {
                "code": "vital-signs",
                "system": "http://terminology.hl7.org/CodeSystem/observation-category"
              }
            ]
          }
        ],
        "code": {
          "coding": [
            {
              "code": "3141-9",
              "display": "Patient Body Weight - Measured",
              "system": "urn:oid:2.16.840.1.113883.6.1"
            }
          ]
        },
        "component": [
          {
            "code": {
              "coding": [
                {
                  "code": "3141-9",
                  "display": "Patient Body Weight - Measured",
                  "system": "urn:oid:2.16.840.1.113883.6.1"
                }
              ]
            },
            "valueQuantity": {
              "unit": "kg",
              "value": 88
            }
          }
        ],
        "effectiveDateTime": "2011-09-01T00:00:00+09:00",
        "id": "45adab11f421af1b06770e6ae45bb95f",
        "interpretation": [
          {
            "coding": [
              {
                "code": "N",
                "system": "urn:oid:2.16.840.1.113883.5.83"
              }
            ]
          }
        ],
        "issued": "2008-09-01T09:15:00.1991Z",
        "meta": {
          "source": "Xyz Organization"
        },
        "performer": [
          {
            "reference": "PractitionerRole/4130993393eea4d419db42d90ca550a2"
          }
        ],
        "resourceType": "Observation",
        "status": "final",
        "subject": {
          "reference": "Patient/3fc334e44df0e55221efc90bbd5381eb"
        }
      }
    },
    {
      "request": {
        "method": "PUT",
        "url": "Observation/1f4cb8ca360336830e0156662f1598e8"
      },
      "resource": {
        "category": [
          {
            "coding": [
              {
                "code": "vital-signs",
                "system": "http://terminology.hl7.org/CodeSystem/observation-category"
              }
            ]
          }
        ],
        "code": {
          "coding": [
            {
              "code": "8480-6",
              "display": "BP Systolic",
              "system": "urn:oid:2.16.840.1.113883.6.1"
            }
          ]
        },
        "component": [
          {
            "code": {
              "coding": [
                {
                  "code": "8480-6",
                  "display": "BP Systolic",
                  "system": "urn:oid:2.16.840.1.113883.6.1"
                }
              ]
            },
            "valueQuantity": {
              "unit": "mm[Hg]",
              "value": 128
            }
          }
        ],
        "effectiveDateTime": "2011-09-01T00:00:00+09:00",
        "id": "1f4cb8ca360336830e0156662f1598e8",
        "interpretation": [
          {
            "coding": [
              {
                "code": "N",
                "system": "urn:oid:2.16.840.1.113883.5.83"
              }
            ]
          }
        ],
        "issued": "2008-09-01T09:15:00.1991Z",
        "meta": {
          "source": "Xyz Organization"
        },
        "performer": [
          {
            "reference": "PractitionerRole/4130993393eea4d419db42d90ca550a2"
          }
        ],
        "resourceType": "Observation",
        "status": "final",
        "subject": {
          "reference": "Patient/3fc334e44df0e55221efc90bbd5381eb"
        }
      }
    },
    {
      "request": {
        "method": "PUT",
        "url": "Observation/02c559cd6c40d61fac8e431a38791b9c"
      },
      "resource": {
        "category": [
          {
            "coding": [
              {
                "code": "vital-signs",
                "system": "http://terminology.hl7.org/CodeSystem/observation-category"
              }
            ]
          }
        ],
        "code": {
          "coding": [
            {
              "code": "8462-4",
              "display": "BP Diastolic",
              "system": "urn:oid:2.16.840.1.113883.6.1"
            }
          ]
        },
        "component": [
          {
            "code": {
              "coding": [
                {
                  "code": "8462-4",
                  "display": "BP Diastolic",
                  "system": "urn:oid:2.16.840.1.113883.6.1"
                }
              ]
            },
            "valueQuantity": {
              "unit": "mm[Hg]",
              "value": 80
            }
          }
        ],
        "effectiveDateTime": "2011-09-01T00:00:00+09:00",
        "id": "02c559cd6c40d61fac8e431a38791b9c",
        "interpretation": [
          {
            "coding": [
              {
                "code": "N",
                "system": "urn:oid:2.16.840.1.113883.5.83"
              }
            ]
          }
        ],
        "issued": "2008-09-01T09:15:00.1991Z",
        "meta": {
          "source": "Xyz Organization"
        },
        "performer": [
          {
            "reference": "PractitionerRole/4130993393eea4d419db42d90ca550a2"
          }
        ],
        "resourceType": "Observation",
        "status": "final",
        "subject": {
          "reference": "Patient/3fc334e44df0e55221efc90bbd5381eb"
        }
      }
    },
    {
      "request": {
        "method": "PUT",
        "url": "Observation/c11fcaa3463d67df0720a4fb45aa1d16"
      },
      "resource": {
        "category": [
          {
            "coding": [
              {
                "code": "social-history",
                "system": "http://terminology.hl7.org/CodeSystem/observation-category"
              }
            ]
          }
        ],
        "code": {
          "coding": [
            {
              "code": "72166-2",
              "display": "Tobacco smoking status NHIS",
              "system": "urn:oid:2.16.840.1.113883.6.1"
            }
          ]
        },
        "component": [
          {
            "code": {
              "coding": [
                {
                  "code": "72166-2",
                  "display": "Tobacco smoking status NHIS",
                  "system": "urn:oid:2.16.840.1.113883.6.1"
                }
              ]
            },
            "valueCodeableConcept": {
              "coding": [
                {
                  "code": "8517006",
                  "display": "Former smoker",
                  "system": "urn:oid:2.16.840.1.113883.6.96"
                }
              ]
            }
          }
        ],
        "effectiveDateTime": "2012-09-10T00:00:00+09:00",
        "id": "c11fcaa3463d67df0720a4fb45aa1d16",
        "identifier": [
          {
            "system": "urn:oid:2.16.840.1.113883.19",
            "value": "123456789"
          }
        ],
        "issued": "2008-09-10T11:45:00.109910Z",
        "meta": {
          "source": "Xyz Organization"
        },
        "performer": [
          {
            "reference": "PractitionerRole/4130993393eea4d419db42d90ca550a2"
          }
        ],
        "resourceType": "Observation",
        "status": "final",
        "subject": {
          "reference": "Patient/3fc334e44df0e55221efc90bbd5381eb"
        }
      }
    },
    {
      "request": {
        "method": "PUT",
        "url": "Observation/1535036f69b6b5d6a2c0e0eaa5ba17d0"
      },
      "resource": {
        "category": [
          {
            "coding": [
              {
                "code": "social-history",
                "system": "http://terminology.hl7.org/CodeSystem/observation-category"
              }
            ]
          }
        ],
        "code": {
          "coding": [
            {
              "code": "11367-0",
              "display": "History of tobacco use",
              "system": "urn:oid:2.16.840.1.113883.6.1"
            }
          ]
        },
        "component": [
          {
            "code": {
              "coding": [
                {
                  "code": "11367-0",
                  "display": "History of tobacco use",
                  "system": "urn:oid:2.16.840.1.113883.6.1"
                }
              ]
            },
            "valueCodeableConcept": {
              "coding": [
                {
                  "code": "160604004",
                  "display": "Moderate cigarette smoker, 10-19/day",
                  "system": "urn:oid:2.16.840.1.113883.6.96"
                }
              ]
            }
          }
        ],
        "effectivePeriod": {
          "end": "2011-02-15T00:00:00+02:00",
          "start": "2009-02-14T00:00:00+02:00"
        },
        "id": "1535036f69b6b5d6a2c0e0eaa5ba17d0",
        "issued": "2008-09-10T11:45:00.109910Z",
        "meta": {
          "source": "Xyz Organization"
        },
        "performer": [
          {
            "reference": "PractitionerRole/4130993393eea4d419db42d90ca550a2"
          }
        ],
        "resourceType": "Observation",
        "status": "final",
        "subject": {
          "reference": "Patient/3fc334e44df0e55221efc90bbd5381eb"
        }
      }
    },
    {
      "request": {
        "method": "PUT",
        "url": "Observation/7300a74905b192f1c94e9f8c33eb0316"
      },
      "resource": {
        "category": [
          {
            "coding": [
              {
                "code": "social-history",
                "system": "http://terminology.hl7.org/CodeSystem/observation-category"
              }
            ]
          }
        ],
        "code": {
          "coding": [
            {
              "code": "74013-4",
              "display": "Alcoholic drinks per day",
              "system": "urn:oid:2.16.840.1.113883.6.1"
            }
          ]
        },
        "component": [
          {
            "code": {
              "coding": [
                {
                  "code": "74013-4",
                  "display": "Alcoholic drinks per day",
                  "system": "urn:oid:2.16.840.1.113883.6.1"
                }
              ]
            },
            "valueQuantity": {
              "value": 12
            }
          }
        ],
        "effectivePeriod": {
          "start": "2012-02-15T00:00:00+02:00"
        },
        "id": "7300a74905b192f1c94e9f8c33eb0316",
        "issued": "2008-09-10T11:45:00.109910Z",
        "meta": {
          "source": "Xyz Organization"
        },
        "performer": [
          {
            "reference": "PractitionerRole/4130993393eea4d419db42d90ca550a2"
          }
        ],
        "resourceType": "Observation",
        "status": "final",
        "subject": {
          "reference": "Patient/3fc334e44df0e55221efc90bbd5381eb"
        }
      }
    },
    {
      "request": {
        "method": "PUT",
        "url": "PractitionerRole/3e9882fb516c6b3624e11d729a6b4c6f"
      },
      "resource": {
        "active": true,
        "code": [
          {
            "coding": [
              {
                "code": "59058001",
                "display": "General Physician",
                "system": "urn:oid:2.16.840.1.113883.6.96"
              }
            ]
          }
        ],
        "id": "3e9882fb516c6b3624e11d729a6b4c6f",
        "identifier": [
          {
            "system": "urn:oid:2.16.840.1.113883.4.6",
            "value": "333444555"
          }
        ],
        "meta": {
          "source": "Xyz Organization"
        },
        "organization": {
          "reference": "Organization/9eb867e38c4b0ab4baf8b62b9caab2f8"
        },
        "practitioner": {
          "reference": "Practitioner/dc282e8eaa9bd43005b04741d234fd7c"
        },
        "resourceType": "PractitionerRole"
      }
    },
    {
      "request": {
        "method": "PUT",
        "url": "Location/58cd28428d21ac715afad3ece3573fd9"
      },
      "resource": {
        "address": {
          "city": "Portland",
          "country": "US",
          "line": [
            "1007 Health Drive"
          ],
          "postalCode": "99123",
          "state": "OR"
        },
        "id": "58cd28428d21ac715afad3ece3573fd9",
        "meta": {
          "source": "Xyz Organization"
        },
        "name": "Good Health Urgent Care",
        "resourceType": "Location",
        "telecom": [
          {
            "system": "phone",
            "value": "tel: +1(555)555-1030"
          }
        ],
        "type": [
          {
            "coding": [
              {
                "code": "1160-1",
                "display": "Urgent Care Center",
                "system": "urn:oid:2.16.840.1.113883.6.259"
              }
            ]
          }
        ]
      }
    },
    {
      "request": {
        "method": "PUT",
        "url": "Encounter/edd1b0996ce9d920c7f747d242b65839"
      },
      "resource": {
        "class": {
          "code": "99213",
          "display": "Office outpatient visit 15 minutes",
          "system": "urn:oid:2.16.840.1.113883.6.12"
        },
        "id": "edd1b0996ce9d920c7f747d242b65839",
        "location": [
          {
            "location": {
              "reference": "Location/58cd28428d21ac715afad3ece3573fd9"
            }
          }
        ],
        "meta": {
          "source": "Xyz Organization"
        },
        "participant": [
          {
            "individual": {
              "reference": "PractitionerRole/3e9882fb516c6b3624e11d729a6b4c6f"
            }
          }
        ],
        "resourceType": "Encounter",
        "status": "unknown",
        "subject": {
          "reference": "Patient/3fc334e44df0e55221efc90bbd5381eb"
        },
        "type": [
          {
            "coding": [
              {
                "code": "99213",
                "display": "Office outpatient visit 15 minutes",
                "system": "urn:oid:2.16.840.1.113883.6.12"
              }
            ]
          }
        ]
      }
    },
    {
      "request": {
        "method": "PUT",
        "url": "Device/8724aedccd9bbc1ccc1be368879e0859"
      },
      "resource": {
        "id": "8724aedccd9bbc1ccc1be368879e0859",
        "meta": {
          "source": "Xyz Organization"
        },
        "patient": {
          "reference": "Patient/3fc334e44df0e55221efc90bbd5381eb"
        },
        "resourceType": "Device",
        "type": {
          "coding": [
            {
              "code": "87405001",
              "display": "cane, device (physical object)",
              "system": "urn:oid:2.16.840.1.113883.6.96"
            }
          ]
        }
      }
    },
    {
      "request": {
        "method": "PUT",
        "url": "Observation/0d562c2ef3daafe2c2431ad077fc5504"
      },
      "resource": {
        "category": [
          {
            "coding": [
              {
                "code": "laboratory",
                "system": "http://terminology.hl7.org/CodeSystem/observation-category"
              }
            ]
          }
        ],
        "code": {
          "coding": [
            {
              "code": "54522-8",
              "display": "Functional status",
              "system": "urn:oid:2.16.840.1.113883.6.1"
            }
          ]
        },
        "component": [
          {
            "code": {
              "coding": [
                {
                  "code": "54522-8",
                  "display": "Functional status",
                  "system": "urn:oid:2.16.840.1.113883.6.1"
                }
              ]
            },
            "valueCodeableConcept": {
              "coding": [
                {
                  "code": "165245003",
                  "display": "Independent walking",
                  "system": "urn:oid:2.16.840.1.113883.6.96"
                }
              ]
            }
          }
        ],
        "device": {
          "reference": "Device/8724aedccd9bbc1ccc1be368879e0859"
        },
        "effectiveDateTime": "2013-03-11T00:00:00+03:00",
        "id": "0d562c2ef3daafe2c2431ad077fc5504",
        "issued": "2008-07-06T11:45:00.6776Z",
        "meta": {
          "source": "Xyz Organization"
        },
        "performer": [
          {
            "reference": "PractitionerRole/4130993393eea4d419db42d90ca550a2"
          }
        ],
        "resourceType": "Observation",
        "status": "final",
        "subject": {
          "reference": "Patient/3fc334e44df0e55221efc90bbd5381eb"
        }
      }
    },
    {
      "request": {
        "method": "PUT",
        "url": "Observation/30d234a5ab4ee284c3d23b40c200cc65"
      },
      "resource": {
        "category": [
          {
            "coding": [
              {
                "code": "laboratory",
                "system": "http://terminology.hl7.org/CodeSystem/observation-category"
              }
            ]
          }
        ],
        "code": {
          "coding": [
            {
              "code": "46008-9",
              "display": "Bathing",
              "system": "urn:oid:2.16.840.1.113883.6.1"
            }
          ]
        },
        "component": [
          {
            "code": {
              "coding": [
                {
                  "code": "46008-9",
                  "display": "Bathing",
                  "system": "urn:oid:2.16.840.1.113883.6.1"
                }
              ]
            },
            "valueCodeableConcept": {
              "coding": [
                {
                  "code": "371153006",
                  "display": "Independent",
                  "system": "urn:oid:2.16.840.1.113883.6.96"
                }
              ]
            }
          }
        ],
        "effectiveDateTime": "2003-03-11T00:00:00+03:00",
        "id": "30d234a5ab4ee284c3d23b40c200cc65",
        "issued": "2008-07-06T11:48:00.6776Z",
        "meta": {
          "source": "Xyz Organization"
        },
        "performer": [
          {
            "reference": "PractitionerRole/4130993393eea4d419db42d90ca550a2"
          }
        ],
        "resourceType": "Observation",
        "status": "final",
        "subject": {
          "reference": "Patient/3fc334e44df0e55221efc90bbd5381eb"
        }
      }
    },
    {
      "request": {
        "method": "PUT",
        "url": "PractitionerRole/48ca8f4c3828ba4bb2b7027fcf665163"
      },
      "resource": {
        "active": true,
        "code": [
          {
            "coding": [
              {
                "code": "207QA0505X",
                "display": "Adult Medicine",
                "system": "urn:oid:2.16.840.1.113883.6.101"
              }
            ]
          }
        ],
        "id": "48ca8f4c3828ba4bb2b7027fcf665163",
        "identifier": [
          {
            "system": "urn:oid:2.16.840.1.113883.4.6",
            "value": "222334444"
          }
        ],
        "meta": {
          "source": "Xyz Organization"
        },
        "organization": {
          "reference": "Organization/9eb867e38c4b0ab4baf8b62b9caab2f8"
        },
        "practitioner": {
          "reference": "Practitioner/dc282e8eaa9bd43005b04741d234fd7c"
        },
        "resourceType": "PractitionerRole"
      }
    },
    {
      "request": {
        "method": "PUT",
        "url": "Condition/25b79e26d06497c6f4c051d2fc0ce867"
      },
      "resource": {
        "asserter": {
          "reference": "PractitionerRole/4130993393eea4d419db42d90ca550a2"
        },
        "category": [
          {
            "coding": [
              {
                "code": "75323-6",
                "display": "Condition",
                "system": "urn:oid:2.16.840.1.113883.6.1"
              }
            ]
          }
        ],
        "clinicalStatus": {
          "coding": [
            {
              "code": "active",
              "system": "http://terminology.hl7.org/CodeSystem/condition-clinical"
            }
          ]
        },
        "code": {
          "coding": [
            {
              "code": "233604007",
              "display": "Pneumonia",
              "system": "urn:oid:2.16.840.1.113883.6.96"
            }
          ]
        },
        "id": "25b79e26d06497c6f4c051d2fc0ce867",
        "meta": {
          "source": "Xyz Organization"
        },
        "onsetDateTime": "2013-07-03T00:00:00+07:00",
        "recordedDate": "2008-08-14T10:30:00+08:00",
        "resourceType": "Condition",
        "subject": {
          "reference": "Patient/3fc334e44df0e55221efc90bbd5381eb"
        }
      }
    },
    {
      "request": {
        "method": "PUT",
        "url": "Condition/402bbfdfca8d7fbdb5d0c21eeae97fec"
      },
      "resource": {
        "asserter": {
          "reference": "PractitionerRole/4130993393eea4d419db42d90ca550a2"
        },
        "category": [
          {
            "coding": [
              {
                "code": "75323-6",
                "display": "Condition",
                "system": "urn:oid:2.16.840.1.113883.6.1"
              }
            ]
          }
        ],
        "clinicalStatus": {
          "coding": [
            {
              "code": "active",
              "system": "http://terminology.hl7.org/CodeSystem/condition-clinical"
            }
          ]
        },
        "code": {
          "coding": [
            {
              "code": "29857009",
              "display": "Chest pain",
              "system": "urn:oid:2.16.840.1.113883.6.96"
            }
          ]
        },
        "id": "402bbfdfca8d7fbdb5d0c21eeae97fec",
        "meta": {
          "source": "Xyz Organization"
        },
        "onsetDateTime": "2007-04-14T00:00:00+04:00",
        "recordedDate": "2008-04-14T15:15:00+04:00",
        "resourceType": "Condition",
        "subject": {
          "reference": "Patient/3fc334e44df0e55221efc90bbd5381eb"
        }
      }
    },
    {
      "request": {
        "method": "PUT",
        "url": "Condition/c3b329670d0e4adb56ca8887c2f8f783"
      },
      "resource": {
        "asserter": {
          "reference": "PractitionerRole/48ca8f4c3828ba4bb2b7027fcf665163"
        },
        "category": [
          {
            "coding": [
              {
                "code": "75323-6",
                "display": "Condition",
                "system": "urn:oid:2.16.840.1.113883.6.1"
              }
            ]
          }
        ],
        "clinicalStatus": {
          "coding": [
            {
              "code": "active",
              "system": "http://terminology.hl7.org/CodeSystem/condition-clinical"
            }
          ]
        },
        "code": {
          "coding": [
            {
              "code": "194828000",
              "display": "Angina",
              "system": "urn:oid:2.16.840.1.113883.6.96"
            }
          ]
        },
        "id": "c3b329670d0e4adb56ca8887c2f8f783",
        "meta": {
          "source": "Xyz Organization"
        },
        "onsetDateTime": "2007-04-17T00:00:00+04:00",
        "recordedDate": "2008-04-17T15:15:00+04:00",
        "resourceType": "Condition",
        "subject": {
          "reference": "Patient/3fc334e44df0e55221efc90bbd5381eb"
        }
      }
    },
    {
      "request": {
        "method": "PUT",
        "url": "Condition/a00564402284b37022721646022cc6b4"
      },
      "resource": {
        "asserter": {
          "reference": "PractitionerRole/4130993393eea4d419db42d90ca550a2"
        },
        "category": [
          {
            "coding": [
              {
                "code": "75323-6",
                "display": "Condition",
                "system": "urn:oid:2.16.840.1.113883.6.1"
              }
            ]
          }
        ],
        "clinicalStatus": {
          "coding": [
            {
              "code": "active",
              "system": "http://terminology.hl7.org/CodeSystem/condition-clinical"
            }
          ]
        },
        "code": {
          "coding": [
            {
              "code": "233604007",
              "display": "Pneumonia",
              "system": "urn:oid:2.16.840.1.113883.6.96"
            }
          ]
        },
        "id": "a00564402284b37022721646022cc6b4",
        "meta": {
          "source": "Xyz Organization"
        },
        "onsetDateTime": "1998-03-10T00:00:00+03:00",
        "recordedDate": "2008-03-16T10:30:00+03:00",
        "resourceType": "Condition",
        "subject": {
          "reference": "Patient/3fc334e44df0e55221efc90bbd5381eb"
        }
      }
    },
    {
      "request": {
        "method": "PUT",
        "url": "Location/7a8ada479165c2ad50c02a7e2c36362b"
      },
      "resource": {
        "address": {
          "city": "Portland",
          "country": "US",
          "line": [
            "1001 Village Avenue"
          ],
          "postalCode": "99123",
          "state": "OR"
        },
        "id": "7a8ada479165c2ad50c02a7e2c36362b",
        "meta": {
          "source": "Xyz Organization"
        },
        "name": "unknown",
        "resourceType": "Location"
      }
    },
    {
      "request": {
        "method": "PUT",
        "url": "Organization/4cd56a1a868c2f64766f0dbe853c0300"
      },
      "resource": {
        "active": true,
        "address": [
          {
            "city": "Portland",
            "country": "US",
            "line": [
              "1001 Village Avenue"
            ],
            "postalCode": "99123",
            "state": "OR"
          }
        ],
        "id": "4cd56a1a868c2f64766f0dbe853c0300",
        "meta": {
          "source": "Xyz Organization"
        },
        "name": "Community Health and Hospitals",
        "resourceType": "Organization",
        "telecom": [
          {
            "system": "phone",
            "value": "+1(555)555-5000"
          }
        ]
      }
    },
    {
      "request": {
        "method": "PUT",
        "url": "PractitionerRole/1f25f3363665dcb09299d030b3043e55"
      },
      "resource": {
        "active": true,
        "id": "1f25f3363665dcb09299d030b3043e55",
        "identifier": [
          {
            "system": "urn:oid:2.16.840.1.113883.19.5.9999.456",
            "value": "2981823"
          }
        ],
        "location": [
          {
            "reference": "Location/7a8ada479165c2ad50c02a7e2c36362b"
          }
        ],
        "meta": {
          "source": "Xyz Organization"
        },
        "organization": {
          "reference": "Organization/4cd56a1a868c2f64766f0dbe853c0300"
        },
        "practitioner": {
          "reference": "Practitioner/dc282e8eaa9bd43005b04741d234fd7c"
        },
        "resourceType": "PractitionerRole",
        "telecom": [
          {
            "system": "phone",
            "value": "+1(555)555-5000"
          }
        ]
      }
    },
    {
      "request": {
        "method": "PUT",
        "url": "Procedure/0cdaadf399bcb13d0943e4b9189088d5"
      },
      "resource": {
        "bodySite": [
          {
            "coding": [
              {
                "code": "appropriate_code",
                "display": "colon",
                "system": "urn:oid:2.16.840.1.113883.3.88.12.3221.8.9"
              }
            ]
          }
        ],
        "code": {
          "coding": [
            {
              "code": "73761001",
              "display": "Colonoscopy",
              "system": "urn:oid:2.16.840.1.113883.6.96"
            }
          ]
        },
        "id": "0cdaadf399bcb13d0943e4b9189088d5",
        "meta": {
          "source": "Xyz Organization"
        },
        "performedDateTime": "2012-05-12T00:00:00+05:00",
        "performer": [
          {
            "actor": {
              "reference": "PractitionerRole/1f25f3363665dcb09299d030b3043e55"
            }
          }
        ],
        "resourceType": "Procedure",
        "status": "completed",
        "subject": {
          "reference": "Patient/3fc334e44df0e55221efc90bbd5381eb"
        }
      }
    },
    {
      "request": {
        "method": "PUT",
        "url": "PractitionerRole/7fa276b0da05580f7cb3d2571cdb34f7"
      },
      "resource": {
        "active": true,
        "code": [
          {
            "coding": [
              {
                "code": "246Q00000X",
                "display": "Technician, Pathology",
                "system": "urn:oid:2.16.840.1.113883.6.101"
              }
            ]
          }
        ],
        "id": "7fa276b0da05580f7cb3d2571cdb34f7",
        "identifier": [
          {
            "system": "urn:oid:2.16.840.1.113883.4.6",
            "value": "333444444"
          }
        ],
        "meta": {
          "source": "Xyz Organization"
        },
        "organization": {
          "reference": "Organization/9eb867e38c4b0ab4baf8b62b9caab2f8"
        },
        "practitioner": {
          "reference": "Practitioner/dc282e8eaa9bd43005b04741d234fd7c"
        },
        "resourceType": "PractitionerRole"
      }
    },
    {
      "request": {
        "method": "PUT",
        "url": "Observation/71d897f3414a4dd45f4f2e53d6d57850"
      },
      "resource": {
        "category": [
          {
            "coding": [
              {
                "code": "laboratory",
                "system": "http://terminology.hl7.org/CodeSystem/observation-category"
              }
            ]
          }
        ],
        "code": {
          "coding": [
            {
              "code": "718-7",
              "display": "Hemoglobin",
              "system": "urn:oid:2.16.840.1.113883.6.1"
            }
          ]
        },
        "component": [
          {
            "code": {
              "coding": [
                {
                  "code": "718-7",
                  "display": "Hemoglobin",
                  "system": "urn:oid:2.16.840.1.113883.6.1"
                }
              ]
            },
            "valueQuantity": {
              "unit": "g/dL",
              "value": 13.2
            }
          }
        ],
        "effectiveDateTime": "2008-03-19T08:30:00+03:00",
        "id": "71d897f3414a4dd45f4f2e53d6d57850",
        "interpretation": [
          {
            "coding": [
              {
                "code": "N",
                "system": "urn:oid:2.16.840.1.113883.5.83"
              }
            ]
          }
        ],
        "issued": "2008-03-19T08:30:00.193319Z",
        "meta": {
          "source": "Xyz Organization"
        },
        "performer": [
          {
            "reference": "PractitionerRole/7fa276b0da05580f7cb3d2571cdb34f7"
          }
        ],
        "referenceRange": [
          {
            "high": {
              "unit": "g/dL",
              "value": 15.5
            },
            "low": {
              "unit": "g/dL",
              "value": 12
            }
          }
        ],
        "resourceType": "Observation",
        "status": "final",
        "subject": {
          "reference": "Patient/3fc334e44df0e55221efc90bbd5381eb"
        }
      }
    },
    {
      "request": {
        "method": "PUT",
        "url": "Observation/61dbbc5adc2f86f6cf05839cb932bdee"
      },
      "resource": {
        "category": [
          {
            "coding": [
              {
                "code": "laboratory",
                "system": "http://terminology.hl7.org/CodeSystem/observation-category"
              }
            ]
          }
        ],
        "code": {
          "coding": [
            {
              "code": "6690-2",
              "display": "Leukocytes",
              "system": "urn:oid:2.16.840.1.113883.6.1"
            }
          ]
        },
        "component": [
          {
            "code": {
              "coding": [
                {
                  "code": "6690-2",
                  "display": "Leukocytes",
                  "system": "urn:oid:2.16.840.1.113883.6.1"
                }
              ]
            },
            "valueQuantity": {
              "unit": "10*9/L",
              "value": 6.7
            }
          }
        ],
        "effectiveDateTime": "2008-03-19T08:30:00+03:00",
        "id": "61dbbc5adc2f86f6cf05839cb932bdee",
        "interpretation": [
          {
            "coding": [
              {
                "code": "N",
                "system": "urn:oid:2.16.840.1.113883.5.83"
              }
            ]
          }
        ],
        "issued": "2008-03-19T08:30:00.193319Z",
        "meta": {
          "source": "Xyz Organization"
        },
        "performer": [
          {
            "reference": "PractitionerRole/7fa276b0da05580f7cb3d2571cdb34f7"
          }
        ],
        "referenceRange": [
          {
            "high": {
              "unit": "10*9/L",
              "value": 10.8
            },
            "low": {
              "unit": "10*9/L",
              "value": 4.3
            }
          }
        ],
        "resourceType": "Observation",
        "status": "final",
        "subject": {
          "reference": "Patient/3fc334e44df0e55221efc90bbd5381eb"
        }
      }
    },
    {
      "request": {
        "method": "PUT",
        "url": "Observation/bc33048c15866c9836ec044b6ebc7679"
      },
      "resource": {
        "category": [
          {
            "coding": [
              {
                "code": "laboratory",
                "system": "http://terminology.hl7.org/CodeSystem/observation-category"
              }
            ]
          }
        ],
        "code": {
          "coding": [
            {
              "code": "777-3",
              "display": "Platelets",
              "system": "urn:oid:2.16.840.1.113883.6.1"
            }
          ]
        },
        "component": [
          {
            "code": {
              "coding": [
                {
                  "code": "777-3",
                  "display": "Platelets",
                  "system": "urn:oid:2.16.840.1.113883.6.1"
                }
              ]
            },
            "valueQuantity": {
              "unit": "10*9/L",
              "value": 123
            }
          }
        ],
        "effectiveDateTime": "2008-03-19T08:30:00+03:00",
        "id": "bc33048c15866c9836ec044b6ebc7679",
        "interpretation": [
          {
            "coding": [
              {
                "code": "LX",
                "system": "urn:oid:2.16.840.1.113883.5.83"
              }
            ]
          }
        ],
        "issued": "2008-03-19T08:30:00.193319Z",
        "meta": {
          "source": "Xyz Organization"
        },
        "performer": [
          {
            "reference": "PractitionerRole/7fa276b0da05580f7cb3d2571cdb34f7"
          }
        ],
        "referenceRange": [
          {
            "high": {
              "unit": "10*9/L",
              "value": 350
            },
            "low": {
              "unit": "10*9/L",
              "value": 150
            }
          }
        ],
        "resourceType": "Observation",
        "status": "final",
        "subject": {
          "reference": "Patient/3fc334e44df0e55221efc90bbd5381eb"
        }
      }
    },
    {
      "request": {
        "method": "PUT",
        "url": "Observation/d4ef33d4e442311b3e2ef0fb7c1e8f96"
      },
      "resource": {
        "category": [
          {
            "coding": [
              {
                "code": "laboratory",
                "system": "http://terminology.hl7.org/CodeSystem/observation-category"
              }
            ]
          }
        ],
        "code": {
          "coding": [
            {
              "code": "4544-3",
              "display": "Hematocrit",
              "system": "urn:oid:2.16.840.1.113883.6.1"
            }
          ]
        },
        "component": [
          {
            "code": {
              "coding": [
                {
                  "code": "4544-3",
                  "display": "Hematocrit",
                  "system": "urn:oid:2.16.840.1.113883.6.1"
                }
              ]
            },
            "valueQuantity": {
              "unit": "%",
              "value": 35.3
            }
          }
        ],
        "effectiveDateTime": "2008-03-19T08:30:00+03:00",
        "id": "d4ef33d4e442311b3e2ef0fb7c1e8f96",
        "interpretation": [
          {
            "coding": [
              {
                "code": "LX",
                "system": "urn:oid:2.16.840.1.113883.5.83"
              }
            ]
          }
        ],
        "issued": "2008-03-19T08:30:00.193319Z",
        "meta": {
          "source": "Xyz Organization"
        },
        "performer": [
          {
            "reference": "PractitionerRole/7fa276b0da05580f7cb3d2571cdb34f7"
          }
        ],
        "referenceRange": [
          {
            "high": {
              "unit": "%",
              "value": 44.5
            },
            "low": {
              "unit": "%",
              "value": 34.9
            }
          }
        ],
        "resourceType": "Observation",
        "status": "final",
        "subject": {
          "reference": "Patient/3fc334e44df0e55221efc90bbd5381eb"
        }
      }
    },
    {
      "request": {
        "method": "PUT",
        "url": "Observation/a41bcef3043a474faffd3e7aa4a154cd"
      },
      "resource": {
        "category": [
          {
            "coding": [
              {
                "code": "laboratory",
                "system": "http://terminology.hl7.org/CodeSystem/observation-category"
              }
            ]
          }
        ],
        "code": {
          "coding": [
            {
              "code": "789-8",
              "display": "Erythrocytes",
              "system": "urn:oid:2.16.840.1.113883.6.1"
            }
          ]
        },
        "component": [
          {
            "code": {
              "coding": [
                {
                  "code": "789-8",
                  "display": "Erythrocytes",
                  "system": "urn:oid:2.16.840.1.113883.6.1"
                }
              ]
            },
            "valueQuantity": {
              "unit": "10*12/L",
              "value": 4.21
            }
          }
        ],
        "effectiveDateTime": "2008-03-19T08:30:00+03:00",
        "id": "a41bcef3043a474faffd3e7aa4a154cd",
        "interpretation": [
          {
            "coding": [
              {
                "code": "N",
                "system": "urn:oid:2.16.840.1.113883.5.83"
              }
            ]
          }
        ],
        "issued": "2008-03-19T08:30:00.193319Z",
        "meta": {
          "source": "Xyz Organization"
        },
        "performer": [
          {
            "reference": "PractitionerRole/7fa276b0da05580f7cb3d2571cdb34f7"
          }
        ],
        "referenceRange": [
          {
            "high": {
              "unit": "10*12/L",
              "value": 5.03
            },
            "low": {
              "unit": "10*12/L",
              "value": 3.9
            }
          }
        ],
        "resourceType": "Observation",
        "status": "final",
        "subject": {
          "reference": "Patient/3fc334e44df0e55221efc90bbd5381eb"
        }
      }
    },
    {
      "request": {
        "method": "PUT",
        "url": "Observation/c1a34409fef42e69242cf5ccd9822686"
      },
      "resource": {
        "category": [
          {
            "coding": [
              {
                "code": "laboratory",
                "system": "http://terminology.hl7.org/CodeSystem/observation-category"
              }
            ]
          }
        ],
        "code": {
          "coding": [
            {
              "code": "3094-0",
              "display": "Urea nitrogen, Serum",
              "system": "urn:oid:2.16.840.1.113883.6.1"
            }
          ]
        },
        "component": [
          {
            "code": {
              "coding": [
                {
                  "code": "3094-0",
                  "display": "Urea nitrogen, Serum",
                  "system": "urn:oid:2.16.840.1.113883.6.1"
                }
              ]
            }
          }
        ],
        "effectiveDateTime": "2008-03-20T09:30:00+03:00",
        "id": "c1a34409fef42e69242cf5ccd9822686",
        "issued": "2020-01-01T01:01:01.1111Z",
        "meta": {
          "source": "Xyz Organization"
        },
        "resourceType": "Observation",
        "status": "unknown",
        "subject": {
          "reference": "Patient/3fc334e44df0e55221efc90bbd5381eb"
        }
      }
    },
    {
      "request": {
        "method": "PUT",
        "url": "DiagnosticReport/659c768b95b91d9898a9237dda3d6d5e"
      },
      "resource": {
        "category": [
          {
            "coding": [
              {
                "code": "unknown"
              }
            ]
          }
        ],
        "code": {
          "coding": [
            {
              "code": "57021-8",
              "display": "CBC W Auto Differential panel in Blood",
              "system": "urn:oid:2.16.840.1.113883.6.1"
            }
          ]
        },
        "effectivePeriod": {
          "end": "2008-03-19T08:30:00+03:00",
          "start": "2008-03-19T08:30:00+03:00"
        },
        "id": "659c768b95b91d9898a9237dda3d6d5e",
        "issued": "2008-03-19T08:30:00.193319Z",
        "meta": {
          "source": "Xyz Organization"
        },
        "resourceType": "DiagnosticReport",
        "result": [
          {
            "reference": "Observation/71d897f3414a4dd45f4f2e53d6d57850"
          },
          {
            "reference": "Observation/61dbbc5adc2f86f6cf05839cb932bdee"
          },
          {
            "reference": "Observation/bc33048c15866c9836ec044b6ebc7679"
          },
          {
            "reference": "Observation/d4ef33d4e442311b3e2ef0fb7c1e8f96"
          },
          {
            "reference": "Observation/a41bcef3043a474faffd3e7aa4a154cd"
          }
        ],
        "status": "final",
        "subject": {
          "reference": "Patient/3fc334e44df0e55221efc90bbd5381eb"
        }
      }
    },
    {
      "request": {
        "method": "PUT",
        "url": "DiagnosticReport/3f3bb23bb2e5f5fffdd6f2c0ff426220"
      },
      "resource": {
        "category": [
          {
            "coding": [
              {
                "code": "unknown"
              }
            ]
          }
        ],
        "code": {
          "coding": [
            {
              "code": "166312007",
              "display": "Blood chemistry test",
              "system": "urn:oid:2.16.840.1.113883.6.96"
            }
          ]
        },
        "effectivePeriod": {
          "end": "2008-03-20T09:30:00+03:00",
          "start": "2008-03-20T09:30:00+03:00"
        },
        "id": "3f3bb23bb2e5f5fffdd6f2c0ff426220",
        "issued": "2020-01-01T01:01:01.1111Z",
        "meta": {
          "source": "Xyz Organization"
        },
        "resourceType": "DiagnosticReport",
        "result": [
          {
            "reference": "Observation/c1a34409fef42e69242cf5ccd9822686"
          }
        ],
        "status": "partial",
        "subject": {
          "reference": "Patient/3fc334e44df0e55221efc90bbd5381eb"
        }
      }
    },
    {
      "request": {
        "method": "PUT",
        "url": "Location/18eeea4afdd4a63da15a40b59f952e0e"
      },
      "resource": {
        "address": {
          "city": "Ann Arbor",
          "country": "US",
          "line": [
            "1004 Health Care Drive"
          ],
          "postalCode": "02368",
          "state": "MI"
        },
        "id": "18eeea4afdd4a63da15a40b59f952e0e",
        "meta": {
          "source": "Xyz Organization"
        },
        "name": "unknown",
        "resourceType": "Location"
      }
    },
    {
      "request": {
        "method": "PUT",
        "url": "Organization/093b1725ff8e400709a517191f1793a9"
      },
      "resource": {
        "active": true,
        "address": [
          {
            "city": "Ann Arbor",
            "country": "US",
            "line": [
              "1003 Health Care Drive"
            ],
            "postalCode": "02368",
            "state": "MI"
          }
        ],
        "id": "093b1725ff8e400709a517191f1793a9",
        "meta": {
          "source": "Xyz Organization"
        },
        "name": "Community Health and Hospitals",
        "resourceType": "Organization",
        "telecom": [
          {
            "system": "phone",
            "value": "tel:+1(555)-555-5005"
          }
        ]
      }
    },
    {
      "request": {
        "method": "PUT",
        "url": "PractitionerRole/2ac6cf96864970fdc296eee1594a9199"
      },
      "resource": {
        "active": true,
        "id": "2ac6cf96864970fdc296eee1594a9199",
        "identifier": [
          {
            "system": "urn:oid:2.16.840.1.113883.19",
            "value": "1234"
          }
        ],
        "location": [
          {
            "reference": "Location/18eeea4afdd4a63da15a40b59f952e0e"
          }
        ],
        "meta": {
          "source": "Xyz Organization"
        },
        "organization": {
          "reference": "Organization/093b1725ff8e400709a517191f1793a9"
        },
        "practitioner": {
          "reference": "Practitioner/dc282e8eaa9bd43005b04741d234fd7c"
        },
        "resourceType": "PractitionerRole",
        "telecom": [
          {
            "system": "phone",
            "value": "tel: +1(555)-555-5004"
          }
        ]
      }
    },
    {
      "request": {
        "method": "PUT",
        "url": "Device/e1a2792d2aeccedea1bc5d9e9c3650be"
      },
      "resource": {
        "id": "e1a2792d2aeccedea1bc5d9e9c3650be",
        "meta": {
          "source": "Xyz Organization"
        },
        "patient": {
          "reference": "Patient/3fc334e44df0e55221efc90bbd5381eb"
        },
        "resourceType": "Device",
        "type": {
          "coding": [
            {
              "code": "87405001",
              "display": "cane",
              "system": "urn:oid:2.16.840.1.113883.6.96"
            }
          ]
        }
      }
    },
    {
      "request": {
        "method": "PUT",
        "url": "Procedure/5e755991db93ad0d8adad85129ca6c62"
      },
      "resource": {
        "bodySite": [
          {
            "coding": [
              {
                "code": "28273000",
                "display": "bile duct",
                "system": "urn:oid:2.16.840.1.113883.6.96"
              }
            ]
          }
        ],
        "code": {
          "coding": [
            {
              "code": "103716009",
              "display": "Stent Placement",
              "system": "urn:oid:2.16.840.1.113883.6.96"
            }
          ]
        },
        "id": "5e755991db93ad0d8adad85129ca6c62",
        "meta": {
          "source": "Xyz Organization"
        },
        "performedDateTime": "2013-05-12T00:00:00+05:00",
        "performer": [
          {
            "actor": {
              "reference": "PractitionerRole/2ac6cf96864970fdc296eee1594a9199"
            }
          }
        ],
        "resourceType": "Procedure",
        "status": "completed",
        "subject": {
          "reference": "Patient/3fc334e44df0e55221efc90bbd5381eb"
        }
      }
    },
    {
      "request": {
        "method": "PUT",
        "url": "Device/bbc9f446c8f2a1384235fd1691322910"
      },
      "resource": {
        "id": "bbc9f446c8f2a1384235fd1691322910",
        "meta": {
          "source": "Xyz Organization"
        },
        "patient": {
          "reference": "Patient/3fc334e44df0e55221efc90bbd5381eb"
        },
        "resourceType": "Device",
        "type": {
          "coding": [
            {
              "code": "14106009",
              "display": "cardiac pacemaker, device (physical object)",
              "system": "urn:oid:2.16.840.1.113883.6.96"
            }
          ]
        }
      }
    },
    {
      "request": {
        "method": "PUT",
        "url": "Device/8420e1eff2a3c0bd2cbcd43b4b2faa7f"
      },
      "resource": {
        "id": "8420e1eff2a3c0bd2cbcd43b4b2faa7f",
        "meta": {
          "source": "Xyz Organization"
        },
        "patient": {
          "reference": "Patient/3fc334e44df0e55221efc90bbd5381eb"
        },
        "resourceType": "Device",
        "type": {
          "coding": [
            {
              "code": "303406003",
              "display": "upper gastrointestinal prosthesis (physical object)",
              "system": "urn:oid:2.16.840.1.113883.6.96"
            }
          ]
        }
      }
    },
    {
      "request": {
        "method": "PUT",
        "url": "Organization/86fc93cd32d9327f58aff37858b47b32"
      },
      "resource": {
        "active": true,
        "id": "86fc93cd32d9327f58aff37858b47b32",
        "identifier": [
          {
            "system": "http://hl7.org/fhir/sid/us-npi",
            "value": "unkown"
          }
        ],
        "meta": {
          "source": "Xyz Organization"
        },
        "name": "Medication Factory Inc.",
        "resourceType": "Organization"
      }
    },
    {
      "request": {
        "method": "PUT",
        "url": "Medication/e64a538020f9f15fcd026b6a19e78c55"
      },
      "resource": {
        "code": {
          "coding": [
            {
              "code": "573621",
              "display": "Proventil 0.09 MG/ACTUAT inhalant solution",
              "system": "urn:oid:2.16.840.1.113883.6.88"
            }
          ]
        },
        "id": "e64a538020f9f15fcd026b6a19e78c55",
        "manufacturer": {
          "reference": "Organization/86fc93cd32d9327f58aff37858b47b32"
        },
        "meta": {
          "source": "Xyz Organization"
        },
        "resourceType": "Medication"
      }
    },
    {
      "request": {
        "method": "PUT",
        "url": "Condition/e01ae253bf37de61b2500af35f8e2c5d"
      },
      "resource": {
        "category": [
          {
            "coding": [
              {
                "code": "75321-0",
                "display": "Clinical finding",
                "system": "urn:oid:2.16.840.1.113883.6.1"
              }
            ]
          }
        ],
        "clinicalStatus": {
          "coding": [
            {
              "code": "active",
              "system": "http://terminology.hl7.org/CodeSystem/condition-clinical"
            }
          ]
        },
        "code": {
          "coding": [
            {
              "code": "195967001",
              "display": "Asthma",
              "system": "urn:oid:2.16.840.1.113883.6.96"
            }
          ]
        },
        "id": "e01ae253bf37de61b2500af35f8e2c5d",
        "identifier": [
          {
            "system": "urn:oid:db734647-fc99-424c-a864-7e3cda82e703",
            "value": "45665"
          }
        ],
        "meta": {
          "source": "Xyz Organization"
        },
        "onsetDateTime": "2011-01-03T00:00:00+01:00",
        "resourceType": "Condition",
        "subject": {
          "reference": "Patient/3fc334e44df0e55221efc90bbd5381eb"
        }
      }
    },
    {
      "request": {
        "method": "PUT",
        "url": "Location/2d94beb3d8f6873b9a51122560cc63a7"
      },
      "resource": {
        "address": {
          "city": "Portland",
          "country": "US",
          "line": [
            "1016 Health Drive"
          ],
          "postalCode": "99123",
          "state": "OR"
        },
        "id": "2d94beb3d8f6873b9a51122560cc63a7",
        "meta": {
          "source": "Xyz Organization"
        },
        "name": "unknown",
        "resourceType": "Location"
      }
    },
    {
      "request": {
        "method": "PUT",
        "url": "Practitioner/f05a99a8061e54f3eb6566b5873837a2"
      },
      "resource": {
        "id": "f05a99a8061e54f3eb6566b5873837a2",
        "identifier": [
          {
            "system": "urn:oid:2.16.840.1.113883.4.6",
            "value": "333222222"
          }
        ],
        "meta": {
          "source": "Xyz Organization"
        },
        "name": [
          {
            "family": "Script",
            "given": [
              "Susan"
            ],
            "use": "usual"
          }
        ],
        "resourceType": "Practitioner"
      }
    },
    {
      "request": {
        "method": "PUT",
        "url": "Organization/b680371c03d28e5781ba968b35b58f83"
      },
      "resource": {
        "active": true,
        "id": "b680371c03d28e5781ba968b35b58f83",
        "identifier": [
          {
            "system": "http://hl7.org/fhir/sid/us-npi",
            "value": "unkown"
          }
        ],
        "meta": {
          "source": "Xyz Organization"
        },
        "name": "People's Pharmacy",
        "resourceType": "Organization"
      }
    },
    {
      "request": {
        "method": "PUT",
        "url": "PractitionerRole/244458c0fcfcae6b488b2a01a365a26a"
      },
      "resource": {
        "active": true,
        "id": "244458c0fcfcae6b488b2a01a365a26a",
        "identifier": [
          {
            "system": "urn:oid:2.16.840.1.113883.4.6",
            "value": "333222222"
          }
        ],
        "location": [
          {
            "reference": "Location/2d94beb3d8f6873b9a51122560cc63a7"
          }
        ],
        "meta": {
          "source": "Xyz Organization"
        },
        "organization": {
          "reference": "Organization/b680371c03d28e5781ba968b35b58f83"
        },
        "practitioner": {
          "reference": "Practitioner/f05a99a8061e54f3eb6566b5873837a2"
        },
        "resourceType": "PractitionerRole",
        "telecom": [
          {
            "system": "phone",
            "value": "tel:+1(555)555-1016"
          }
        ]
      }
    },
    {
      "request": {
        "method": "PUT",
        "url": "MedicationDispense/775da3919ebffc1d64eeb1635384eb02"
      },
      "resource": {
        "dosageInstruction": [
          {
            "doseAndRate": [
              {
                "doseQuantity": {
                  "value": 75
                }
              }
            ]
          }
        ],
        "id": "775da3919ebffc1d64eeb1635384eb02",
        "identifier": [
          {
            "system": "urn:oid:1.2.3.4.56789.1",
            "value": "cb734647-fc99-424c-a864-7e3cda82e704"
          }
        ],
        "medicationReference": {
          "reference": "Medication/e64a538020f9f15fcd026b6a19e78c55"
        },
        "meta": {
          "source": "Xyz Organization"
        },
        "performer": [
          {
            "actor": {
              "reference": "PractitionerRole/244458c0fcfcae6b488b2a01a365a26a"
            }
          }
        ],
        "quantity": {
          "value": 75
        },
        "resourceType": "MedicationDispense",
        "status": "completed",
        "whenHandedOver": "2008-08-15T14:50:00+08:00",
        "whenPrepared": "2008-08-15T14:50:00+08:00"
      }
    },
    {
      "request": {
        "method": "PUT",
        "url": "Organization/c03ac3f72ca637c8a847ca330319e583"
      },
      "resource": {
        "active": true,
        "id": "c03ac3f72ca637c8a847ca330319e583",
        "identifier": [
          {
            "system": "http://hl7.org/fhir/sid/us-npi",
            "value": "unkown"
          }
        ],
        "meta": {
          "source": "Xyz Organization"
        },
        "name": "unknown",
        "resourceType": "Organization"
      }
    },
    {
      "request": {
        "method": "PUT",
        "url": "Medication/c4284edb8067c7bcfb5fe6fab3e9b9ed"
      },
      "resource": {
        "code": {
          "coding": [
            {
              "code": "197380",
              "display": "Atenolol 25 MG Oral Tablet",
              "system": "urn:oid:2.16.840.1.113883.6.88"
            }
          ]
        },
        "id": "c4284edb8067c7bcfb5fe6fab3e9b9ed",
        "manufacturer": {
          "reference": "Organization/c03ac3f72ca637c8a847ca330319e583"
        },
        "meta": {
          "source": "Xyz Organization"
        },
        "resourceType": "Medication"
      }
    },
    {
      "request": {
        "method": "PUT",
        "url": "Condition/aa53e687610d3507125c418ec16c52ee"
      },
      "resource": {
        "category": [
          {
            "coding": [
              {
                "code": "75321-0",
                "display": "Clinical finding",
                "system": "urn:oid:2.16.840.1.113883.6.1"
              }
            ]
          }
        ],
        "code": {
          "coding": [
            {
              "code": "38341003",
              "display": "Hypertension",
              "system": "urn:oid:2.16.840.1.113883.6.96"
            }
          ]
        },
        "id": "aa53e687610d3507125c418ec16c52ee",
        "meta": {
          "source": "Xyz Organization"
        },
        "resourceType": "Condition",
        "subject": {
          "reference": "Patient/3fc334e44df0e55221efc90bbd5381eb"
        }
      }
    },
    {
      "request": {
        "method": "PUT",
        "url": "MedicationStatement/8c800b2d33bf68db9a1530b67b4121ea"
      },
      "resource": {
        "dosage": [
          {
            "doseAndRate": [
              {
                "doseQuantity": {
                  "value": 2
                }
              }
            ],
            "route": {
              "coding": [
                {
                  "code": "C38216",
                  "display": "RESPIRATORY (INHALATION)",
                  "system": "urn:oid:2.16.840.1.113883.3.26.1.1"
                }
              ]
            }
          }
        ],
        "id": "8c800b2d33bf68db9a1530b67b4121ea",
        "medicationReference": {
          "reference": "Medication/e64a538020f9f15fcd026b6a19e78c55"
        },
        "meta": {
          "source": "Xyz Organization"
        },
        "partOf": [
          {
            "reference": "MedicationDispense/775da3919ebffc1d64eeb1635384eb02"
          }
        ],
        "reasonReference": [
          {
            "reference": "Condition/e01ae253bf37de61b2500af35f8e2c5d"
          }
        ],
        "resourceType": "MedicationStatement",
        "status": "active",
        "subject": {
          "reference": "Patient/3fc334e44df0e55221efc90bbd5381eb"
        }
      }
    },
    {
      "request": {
        "method": "PUT",
        "url": "MedicationStatement/b4fd5a1ff47987280340debe3c7008db"
      },
      "resource": {
        "dosage": [
          {
            "doseAndRate": [
              {
                "doseQuantity": {
                  "value": 1
                }
              }
            ],
            "route": {
              "coding": [
                {
                  "code": "C38288",
                  "display": "ORAL",
                  "system": "urn:oid:2.16.840.1.113883.3.26.1.1"
                }
              ]
            }
          }
        ],
        "id": "b4fd5a1ff47987280340debe3c7008db",
        "medicationReference": {
          "reference": "Medication/c4284edb8067c7bcfb5fe6fab3e9b9ed"
        },
        "meta": {
          "source": "Xyz Organization"
        },
        "reasonReference": [
          {
            "reference": "Condition/aa53e687610d3507125c418ec16c52ee"
          }
        ],
        "resourceType": "MedicationStatement",
        "status": "active",
        "subject": {
          "reference": "Patient/3fc334e44df0e55221efc90bbd5381eb"
        }
      }
    },
    {
      "request": {
        "method": "PUT",
        "url": "Organization/16afc6439b2892eea8292fb4a149ef44"
      },
      "resource": {
        "active": true,
        "id": "16afc6439b2892eea8292fb4a149ef44",
        "identifier": [
          {
            "system": "http://hl7.org/fhir/sid/us-npi",
            "value": "unkown"
          }
        ],
        "meta": {
          "source": "Xyz Organization"
        },
        "name": "Health LS - Immuno Inc.",
        "resourceType": "Organization"
      }
    },
    {
      "request": {
        "method": "PUT",
        "url": "Location/1ca25231b6cfc0ca2c88c7b41f2ead35"
      },
      "resource": {
        "address": {
          "city": "Portland",
          "country": "US",
          "line": [
            "1007 Health Drive"
          ],
          "postalCode": "99123",
          "state": "OR"
        },
        "id": "1ca25231b6cfc0ca2c88c7b41f2ead35",
        "meta": {
          "source": "Xyz Organization"
        },
        "name": "unknown",
        "resourceType": "Location"
      }
    },
    {
      "request": {
        "method": "PUT",
        "url": "Practitioner/abb5aceab5b2b2441ecd9c69e7e5be92"
      },
      "resource": {
        "id": "abb5aceab5b2b2441ecd9c69e7e5be92",
        "identifier": [
          {
            "system": "urn:oid:2.16.840.1.113883.19.5.9999.456",
            "value": "2981824"
          }
        ],
        "meta": {
          "source": "Xyz Organization"
        },
        "name": [
          {
            "family": "Hippocrates",
            "given": [
              "Harold"
            ],
            "use": "usual"
          }
        ],
        "resourceType": "Practitioner"
      }
    },
    {
      "request": {
        "method": "PUT",
        "url": "Organization/17bd92b8f0d0688548b9d05ab9e3ff92"
      },
      "resource": {
        "active": true,
        "address": [
          {
            "city": "Portland",
            "country": "US",
            "line": [
              "1007 Health Drive"
            ],
            "postalCode": "99123",
            "state": "OR"
          }
        ],
        "id": "17bd92b8f0d0688548b9d05ab9e3ff92",
        "meta": {
          "source": "Xyz Organization"
        },
        "name": "Good Health Clinic",
        "resourceType": "Organization",
        "telecom": [
          {
            "system": "phone",
            "value": "tel: +1(555)555-1030"
          }
        ]
      }
    },
    {
      "request": {
        "method": "PUT",
        "url": "PractitionerRole/6ae296416fa1319b9762f55bb9cc272f"
      },
      "resource": {
        "active": true,
        "id": "6ae296416fa1319b9762f55bb9cc272f",
        "identifier": [
          {
            "system": "urn:oid:2.16.840.1.113883.19.5.9999.456",
            "value": "2981824"
          }
        ],
        "location": [
          {
            "reference": "Location/1ca25231b6cfc0ca2c88c7b41f2ead35"
          }
        ],
        "meta": {
          "source": "Xyz Organization"
        },
        "organization": {
          "reference": "Organization/17bd92b8f0d0688548b9d05ab9e3ff92"
        },
        "practitioner": {
          "reference": "Practitioner/abb5aceab5b2b2441ecd9c69e7e5be92"
        },
        "resourceType": "PractitionerRole",
        "telecom": [
          {
            "system": "phone",
            "value": "tel: +1(555)555-1030"
          }
        ]
      }
    },
    {
      "request": {
        "method": "PUT",
        "url": "Organization/0a0fff3a2a69279658c17b91d38fde6a"
      },
      "resource": {
        "active": true,
        "id": "0a0fff3a2a69279658c17b91d38fde6a",
        "meta": {
          "source": "Xyz Organization"
        },
        "name": "Good Health Clinic",
        "resourceType": "Organization",
        "telecom": [
          {
            "system": "phone",
            "value": "tel: +1(555)555-1030"
          }
        ]
      }
    },
    {
      "request": {
        "method": "PUT",
        "url": "PractitionerRole/1e3b6ec2f446805b088d7af98df72bdc"
      },
      "resource": {
        "active": true,
        "id": "1e3b6ec2f446805b088d7af98df72bdc",
        "identifier": [
          {
            "system": "urn:oid:2.16.840.1.113883.19.5.9999.456",
            "value": "2981824"
          }
        ],
        "location": [
          {
            "reference": "Location/1ca25231b6cfc0ca2c88c7b41f2ead35"
          }
        ],
        "meta": {
          "source": "Xyz Organization"
        },
        "organization": {
          "reference": "Organization/0a0fff3a2a69279658c17b91d38fde6a"
        },
        "practitioner": {
          "reference": "Practitioner/abb5aceab5b2b2441ecd9c69e7e5be92"
        },
        "resourceType": "PractitionerRole",
        "telecom": [
          {
            "system": "phone",
            "value": "tel: +1(555)555-1030"
          }
        ]
      }
    },
    {
      "request": {
        "method": "PUT",
        "url": "Immunization/bd357ac1a42dff3f5718d834521f13c3"
      },
      "resource": {
        "doseQuantity": {
          "unit": "ug",
          "value": 50
        },
        "id": "bd357ac1a42dff3f5718d834521f13c3",
        "lotNumber": "1",
        "manufacturer": {
          "reference": "Organization/16afc6439b2892eea8292fb4a149ef44"
        },
        "meta": {
          "source": "Xyz Organization"
        },
        "occurrenceDateTime": "1999-11-01T00:00:00+11:00",
        "patient": {
          "reference": "Patient/3fc334e44df0e55221efc90bbd5381eb"
        },
        "performer": [
          {
            "actor": {
              "reference": "PractitionerRole/6ae296416fa1319b9762f55bb9cc272f"
            }
          }
        ],
        "primarySource": true,
        "recorded": "1999-11-01T00:00:00+11:00",
        "resourceType": "Immunization",
        "route": {
          "coding": [
            {
              "code": "C28161",
              "display": "Intramuscular injection",
              "system": "urn:oid:2.16.840.1.113883.3.26.1.1"
            }
          ]
        },
        "status": "completed",
        "vaccineCode": {
          "coding": [
            {
              "code": "88",
              "display": "Influenza virus vaccine",
              "system": "urn:oid:2.16.840.1.113883.6.59"
            }
          ]
        }
      }
    },
    {
      "request": {
        "method": "PUT",
        "url": "Immunization/bdbe470e02be0e0e452c8154591708c7"
      },
      "resource": {
        "doseQuantity": {
          "unit": "ug",
          "value": 50
        },
        "id": "bdbe470e02be0e0e452c8154591708c7",
        "lotNumber": "1",
        "manufacturer": {
          "reference": "Organization/16afc6439b2892eea8292fb4a149ef44"
        },
        "meta": {
          "source": "Xyz Organization"
        },
        "occurrenceDateTime": "1998-12-15T00:00:00+12:00",
        "patient": {
          "reference": "Patient/3fc334e44df0e55221efc90bbd5381eb"
        },
        "performer": [
          {
            "actor": {
              "reference": "PractitionerRole/6ae296416fa1319b9762f55bb9cc272f"
            }
          }
        ],
        "primarySource": true,
        "recorded": "1998-12-15T00:00:00+12:00",
        "resourceType": "Immunization",
        "route": {
          "coding": [
            {
              "code": "C28161",
              "display": "Intramuscular injection",
              "system": "urn:oid:2.16.840.1.113883.3.26.1.1"
            }
          ]
        },
        "status": "completed",
        "vaccineCode": {
          "coding": [
            {
              "code": "88",
              "display": "Influenza virus vaccine",
              "system": "urn:oid:2.16.840.1.113883.6.59"
            }
          ]
        }
      }
    },
    {
      "request": {
        "method": "PUT",
        "url": "Immunization/a8913ac33d4d256309fc821e669756ae"
      },
      "resource": {
        "doseQuantity": {
          "unit": "ug",
          "value": 50
        },
        "id": "a8913ac33d4d256309fc821e669756ae",
        "lotNumber": "1",
        "manufacturer": {
          "reference": "Organization/16afc6439b2892eea8292fb4a149ef44"
        },
        "meta": {
          "source": "Xyz Organization"
        },
        "occurrenceDateTime": "1998-12-15T00:00:00+12:00",
        "patient": {
          "reference": "Patient/3fc334e44df0e55221efc90bbd5381eb"
        },
        "performer": [
          {
            "actor": {
              "reference": "PractitionerRole/6ae296416fa1319b9762f55bb9cc272f"
            }
          }
        ],
        "primarySource": true,
        "recorded": "1998-12-15T00:00:00+12:00",
        "resourceType": "Immunization",
        "route": {
          "coding": [
            {
              "code": "C28161",
              "display": "Intramuscular injection",
              "system": "urn:oid:2.16.840.1.113883.3.26.1.1"
            }
          ]
        },
        "status": "completed",
        "vaccineCode": {
          "coding": [
            {
              "code": "33",
              "display": "Pneumococcal polysaccharide vaccine",
              "system": "urn:oid:2.16.840.1.113883.6.59"
            }
          ]
        }
      }
    },
    {
      "request": {
        "method": "PUT",
        "url": "Immunization/e9cd09313c230545976755244201fbc3"
      },
      "resource": {
        "doseQuantity": {
          "unit": "ug",
          "value": 50
        },
        "id": "e9cd09313c230545976755244201fbc3",
        "lotNumber": "1",
        "manufacturer": {
          "reference": "Organization/16afc6439b2892eea8292fb4a149ef44"
        },
        "meta": {
          "source": "Xyz Organization"
        },
        "occurrenceDateTime": "1998-12-15T00:00:00+12:00",
        "patient": {
          "reference": "Patient/3fc334e44df0e55221efc90bbd5381eb"
        },
        "performer": [
          {
            "actor": {
              "reference": "PractitionerRole/1e3b6ec2f446805b088d7af98df72bdc"
            }
          }
        ],
        "primarySource": true,
        "recorded": "1998-12-15T00:00:00+12:00",
        "resourceType": "Immunization",
        "route": {
          "coding": [
            {
              "code": "C28161",
              "display": "Intramuscular injection",
              "system": "urn:oid:2.16.840.1.113883.3.26.1.1"
            }
          ]
        },
        "status": "completed",
        "statusReason": {
          "coding": [
            {
              "code": "PATOBJ",
              "display": "Patient Objection",
              "system": "urn:oid:2.16.840.1.113883.5.8"
            }
          ]
        },
        "vaccineCode": {
          "coding": [
            {
              "code": "103",
              "display": "Tetanus and diphtheria toxoids - preservative free",
              "system": "urn:oid:2.16.840.1.113883.6.59"
            }
          ]
        }
      }
    },
    {
      "request": {
        "method": "PUT",
        "url": "Immunization/3bed6938bf0b5fc5d1b410e04106d235"
      },
      "resource": {
        "id": "3bed6938bf0b5fc5d1b410e04106d235",
        "lotNumber": "1",
        "manufacturer": {
          "reference": "Organization/c03ac3f72ca637c8a847ca330319e583"
        },
        "meta": {
          "source": "Xyz Organization"
        },
        "occurrenceDateTime": "2013-08-01T00:00:00+08:00",
        "patient": {
          "reference": "Patient/3fc334e44df0e55221efc90bbd5381eb"
        },
        "performer": [
          {
            "actor": {
              "reference": "PractitionerRole/6ae296416fa1319b9762f55bb9cc272f"
            }
          }
        ],
        "primarySource": true,
        "recorded": "2013-08-01T00:00:00+08:00",
        "resourceType": "Immunization",
        "route": {
          "coding": [
            {
              "code": "C28161",
              "display": "Intramuscular injection",
              "system": "urn:oid:2.16.840.1.113883.3.26.1.1"
            }
          ]
        },
        "status": "completed",
        "vaccineCode": {
          "coding": [
            {
              "code": "45",
              "display": "Hepatitis B vaccine",
              "system": "urn:oid:2.16.840.1.113883.6.59"
            }
          ]
        }
      }
    },
    {
      "request": {
        "method": "PUT",
        "url": "AllergyIntolerance/3f91f0965fd0677dccd16a3db3fc8261"
      },
      "resource": {
        "category": [
          "environment"
        ],
        "clinicalStatus": {
          "coding": [
            {
              "code": "active",
              "system": "http://terminology.hl7.org/CodeSystem/allergyintolerance-clinical"
            }
          ]
        },
        "code": {
          "coding": [
            {
              "code": "unknown"
            }
          ]
        },
        "id": "3f91f0965fd0677dccd16a3db3fc8261",
        "meta": {
          "source": "Xyz Organization"
        },
        "onsetPeriod": {
          "start": "2008-05-01T11:45:00+05:00"
        },
        "patient": {
          "reference": "Patient/3fc334e44df0e55221efc90bbd5381eb"
        },
        "reaction": [
          {
            "manifestation": [
              {
                "coding": [
                  {
                    "code": "422587007",
                    "display": "Nausea",
                    "system": "urn:oid:2.16.840.1.113883.6.96"
                  }
                ]
              }
            ],
            "severity": "mild",
            "substance": {
              "coding": [
                {
                  "code": "70618",
                  "display": "Penicillin",
                  "system": "urn:oid:2.16.840.1.113883.6.88"
                }
              ]
            }
          }
        ],
        "recorder": {
          "reference": "PractitionerRole/4130993393eea4d419db42d90ca550a2"
        },
        "resourceType": "AllergyIntolerance"
      }
    },
    {
      "request": {
        "method": "PUT",
        "url": "AllergyIntolerance/5983a5553929deb53a6aede9a3d27d90"
      },
      "resource": {
        "category": [
          "environment"
        ],
        "clinicalStatus": {
          "coding": [
            {
              "code": "active",
              "system": "http://terminology.hl7.org/CodeSystem/allergyintolerance-clinical"
            }
          ]
        },
        "code": {
          "coding": [
            {
              "code": "unknown"
            }
          ]
        },
        "id": "5983a5553929deb53a6aede9a3d27d90",
        "meta": {
          "source": "Xyz Organization"
        },
        "onsetPeriod": {
          "start": "2008-05-01T11:45:00+05:00"
        },
        "patient": {
          "reference": "Patient/3fc334e44df0e55221efc90bbd5381eb"
        },
        "reaction": [
          {
            "manifestation": [
              {
                "coding": [
                  {
                    "code": "56018004",
                    "display": "Wheezing",
                    "system": "urn:oid:2.16.840.1.113883.6.96"
                  }
                ]
              }
            ],
            "severity": "moderate",
            "substance": {
              "coding": [
                {
                  "code": "2670",
                  "display": "Codeine",
                  "system": "urn:oid:2.16.840.1.113883.6.88"
                }
              ]
            }
          }
        ],
        "recorder": {
          "reference": "PractitionerRole/4130993393eea4d419db42d90ca550a2"
        },
        "resourceType": "AllergyIntolerance"
      }
    }
  ],
  "identifier": {
    "system": "urn:oid:2.16.840.1.113883.19.5.99999.1",
    "value": "TT988"
  },
  "resourceType": "Bundle",
  "timestamp": "2008-08-15T10:30:00.158815Z",
  "type": "transaction"
}